Frecuencia(Hz),mm/Seg(PC)
3.125,0.405541
4.6875,0.328817
6.25,0.366083
7.8125,0.366083
9.375,0.56995
10.9375,0.79793
12.5,0.480073
14.0625,1.350342
15.625,1.464332
17.1875,0.486649
18.75,0.326625
20.3125,0.267438
21.875,0.30032
23.4375,0.23346
25,0.22798
26.5625,0.255381
28.125,0.23346
29.6875,0.22798
31.25,0.261958
32.8125,0.261958
34.375,0.173177
35.9375,0.252093
37.5,0.26415
39.0625,0.212635
40.625,0.240037
42.1875,0.214827
43.75,0.196194
45.3125,0.218115
46.875,1.341574
48.4375,6.243141
50,5.997624
51.5625,1.10921
53.125,0.240037
54.6875,0.07508
56.25,0.107414
57.8125,0.126047
59.375,0.172081
60.9375,0.106318
62.5,0.245517
64.0625,0.548029
65.625,0.381428
67.1875,0.097549
68.75,0.081656
70.3125,0.082204
71.875,0.11673
73.4375,0.587487
75,0.657634
76.5625,0.172081
78.125,0.07508
79.6875,0.054529
81.25,0.175369
82.8125,0.163313
84.375,0.061379
85.9375,0.069874
87.5,0.084396
89.0625,0.121662
90.625,0.097001
92.1875,0.060009
93.75,0.062201
95.3125,0.626945
96.875,1.069752
98.4375,0.480073
100,0.130979
101.5625,0.095905
103.125,0.062201
104.6875,0.065489
106.25,0.08056
107.8125,0.078916
109.375,0.050693
110.9375,0.082752
112.5,0.067682
114.0625,0.060831
115.625,0.066037
117.1875,0.058365
118.75,0.08056
120.3125,0.07508
121.875,0.044116
123.4375,0.057543
125,0.065489
126.5625,0.048775
128.125,0.054529
129.6875,0.08604
131.25,0.07508
132.8125,0.089329
134.375,0.093713
135.9375,0.076176
137.5,0.066859
139.0625,0.07234
140.625,0.109058
142.1875,0.195098
143.75,0.42527
145.3125,0.548029
146.875,1.082904
148.4375,0.885614
150,0.388004
151.5625,0.429654
153.125,0.240037
154.6875,0.195098
156.25,0.15564
157.8125,0.156736
159.375,0.178657
160.9375,0.243325
162.5,0.289359
164.0625,0.279495
165.625,0.255381
167.1875,0.284975
168.75,0.328817
170.3125,0.436231
171.875,0.558989
173.4375,0.701477
175,0.754087
176.5625,0.946993
178.125,0.85054
179.6875,0.372659
181.25,0.30032
182.8125,0.270726
184.375,0.304704
185.9375,0.359507
187.5,0.320049
189.0625,0.30032
190.625,0.337586
192.1875,0.859309
193.75,1.139899
195.3125,0.596255
196.875,0.442807
198.4375,0.248805
200,0.261958
201.5625,0.165505
203.125,0.138651
204.6875,0.141391
206.25,0.101385
207.8125,0.173177
209.375,0.22798
210.9375,0.164409
212.5,0.137007
214.0625,0.110702
215.625,0.091521
217.1875,0.073436
218.75,0.060831
220.3125,0.043294
221.875,0.064667
223.4375,0.087685
225,0.11399
226.5625,0.090425
228.125,0.118374
229.6875,0.103029
231.25,0.091521
232.8125,0.090425
234.375,0.087685
235.9375,0.110702
237.5,0.130979
239.0625,0.121662
240.625,0.109058
242.1875,0.110702
243.75,0.146872
245.3125,0.326625
246.875,0.261958
248.4375,0.139747
250,0.095357
251.5625,0.115086
253.125,0.11399
254.6875,0.126047
256.25,0.098097
257.8125,0.121662
259.375,0.099741
260.9375,0.141391
262.5,0.149064
264.0625,0.11399
265.625,0.103029
267.1875,0.103029
268.75,0.093165
270.3125,0.103029
271.875,0.093165
273.4375,0.097001
275,0.097001
276.5625,0.083848
278.125,0.103029
279.6875,0.082204
281.25,0.063845
282.8125,0.069326
284.375,0.064667
285.9375,0.078368
287.5,0.106318
289.0625,0.184138
290.625,0.282783
292.1875,0.11399
293.75,0.099741
295.3125,0.094261
296.875,0.07508
298.4375,0.118374
300,0.141391
301.5625,0.08056
303.125,0.060831
304.6875,0.110702
306.25,0.106318
307.8125,0.093165
309.375,0.060009
310.9375,0.534876
312.5,0.99522
314.0625,0.480073
315.625,0.052337
317.1875,0.049049
318.75,0.03754
320.3125,0.039184
321.875,0.066037
323.4375,0.066037
325,0.037266
326.5625,0.045212
328.125,0.048501
329.6875,0.043842
331.25,0.03754
332.8125,0.032334
334.375,0.03343
335.9375,0.025346
337.5,0.038088
339.0625,0.04713
340.625,0.051515
342.1875,0.061379
343.75,0.046582
345.3125,0.041376
346.875,0.03617
348.4375,0.026168
350,0.030005
351.5625,0.024524
353.125,0.039184
354.6875,0.062201
356.25,0.039184
357.8125,0.031923
359.375,0.026168
360.9375,0.03617
362.5,0.035622
364.0625,0.029594
365.625,0.039184
367.1875,0.049871
368.75,0.045212
370.3125,0.034937
371.875,0.052337
373.4375,0.047678
375,0.056995
376.5625,0.078916
378.125,0.050693
379.6875,0.062201
381.25,0.060009
382.8125,0.120018
384.375,0.49761
385.9375,2.998812
387.5,3.34955
389.0625,0.824235
390.625,0.099741
392.1875,0.059187
393.75,0.03891
395.3125,0.041376
396.875,0.033841
398.4375,0.057543
400,0.068504
401.5625,0.121662
403.125,0.07234
404.6875,0.057543
406.25,0.041924
407.8125,0.047678
409.375,0.053159
410.9375,0.046034
412.5,0.041924
414.0625,0.03891
415.625,0.035348
417.1875,0.047678
418.75,0.089877
420.3125,0.07234
421.875,0.04576
423.4375,0.059187
425,0.041102
426.5625,0.035348
428.125,0.028086
429.6875,0.042198
431.25,0.054529
432.8125,0.038362
434.375,0.031101
435.9375,0.042746
437.5,0.050693
439.0625,0.065489
440.625,0.056995
442.1875,0.047952
443.75,0.058365
445.3125,0.044938
446.875,0.061379
448.4375,0.069326
450,0.046034
451.5625,0.061379
453.125,0.070696
454.6875,0.097001
456.25,0.088233
457.8125,0.07782
459.375,0.090425
460.9375,0.168793
462.5,0.118374
464.0625,0.069326
465.625,0.082204
467.1875,0.127691
468.75,0.11399
470.3125,0.099741
471.875,0.098097
473.4375,0.101385
475,0.160024
476.5625,0.157832
478.125,0.202771
479.6875,0.118374
481.25,0.258669
482.8125,0.541452
484.375,0.534876
485.9375,0.212635
487.5,0.08604
489.0625,0.061379
490.625,0.088233
492.1875,0.115086
493.75,0.118374
495.3125,0.124402
496.875,0.107414
498.4375,0.173177
500,0.267438
501.5625,0.270726
503.125,0.199482
504.6875,0.104673
506.25,0.091521
507.8125,0.07508
509.375,0.080012
510.9375,0.07234
512.5,0.070696
514.0625,0.122758
515.625,0.202771
517.1875,0.110702
518.75,0.093713
520.3125,0.11399
521.875,0.145776
523.4375,0.106318
525,0.094261
526.5625,0.087685
528.125,0.137007
529.6875,0.121662
531.25,0.127691
532.8125,0.126047
534.375,0.122758
535.9375,0.137007
537.5,0.068504
539.0625,0.084396
540.625,0.124402
542.1875,0.132075
543.75,0.137007
545.3125,0.098097
546.875,0.069326
548.4375,0.070696
550,0.187426
551.5625,0.170985
553.125,0.132075
554.6875,0.135363
556.25,0.078916
557.8125,0.087685
559.375,0.124402
560.9375,0.137007
562.5,0.190714
564.0625,0.206059
565.625,0.129335
567.1875,0.083848
568.75,0.056995
570.3125,0.056995
571.875,0.072888
573.4375,0.078368
575,0.087685
576.5625,0.11399
578.125,0.209347
579.6875,0.534876
581.25,0.42527
582.8125,0.104673
584.375,0.121662
585.9375,0.083848
587.5,0.063845
589.0625,0.099741
590.625,0.107414
592.1875,0.07782
593.75,0.08056
595.3125,0.101385
596.875,0.11673
598.4375,0.11673
600,0.091521
601.5625,0.066859
603.125,0.070696
604.6875,0.060009
606.25,0.074532
607.8125,0.057543
609.375,0.046856
610.9375,0.057543
612.5,0.058365
614.0625,0.101385
615.625,0.092069
617.1875,0.08604
618.75,0.062201
620.3125,0.059187
621.875,0.122758
623.4375,0.705861
625,1.253889
626.5625,0.578718
628.125,0.098097
629.6875,0.080012
631.25,0.073436
632.8125,0.08056
634.375,0.051515
635.9375,0.050693
637.5,0.084396
639.0625,0.132075
640.625,0.060831
642.1875,0.036444
643.75,0.045212
645.3125,0.069874
646.875,0.055351
648.4375,0.061379
650,0.07508
651.5625,0.065489
653.125,0.053707
654.6875,0.069874
656.25,0.056995
657.8125,0.066037
659.375,0.069326
660.9375,0.064667
662.5,0.049871
664.0625,0.055351
665.625,0.053707
667.1875,0.039458
668.75,0.04576
670.3125,0.04713
671.875,0.056995
673.4375,0.062201
675,0.124402
676.5625,0.346354
678.125,0.258669
679.6875,0.040828
681.25,0.037266
682.8125,0.024935
684.375,0.034252
685.9375,0.035622
687.5,0.038362
689.0625,0.04028
690.625,0.030005
692.1875,0.066859
693.75,0.069326
695.3125,0.060831
696.875,0.043842
698.4375,0.206059
700,0.218115
701.5625,0.053707
703.125,0.039184
704.6875,0.028086
706.25,0.026579
707.8125,0.042746
709.375,0.046856
710.9375,0.04028
712.5,0.031512
714.0625,0.028086
715.625,0.028771
717.1875,0.034252
718.75,0.026579
720.3125,0.028497
721.875,0.041102
723.4375,0.057543
725,0.070696
726.5625,0.044116
728.125,0.033019
729.6875,0.031923
731.25,0.031923
732.8125,0.026853
734.375,0.027264
735.9375,0.036444
737.5,0.041376
739.0625,0.042198
740.625,0.045212
742.1875,0.047678
743.75,0.050693
745.3125,0.048501
746.875,0.035348
748.4375,0.032745
750,0.034937
751.5625,0.03891
753.125,0.023017
754.6875,0.040828
756.25,0.072888
757.8125,0.076724
759.375,0.04576
760.9375,0.052337
762.5,0.055351
764.0625,0.049871
765.625,0.042746
767.1875,0.038362
768.75,0.053159
770.3125,0.168793
771.875,1.315269
773.4375,3.244329
775,2.043051
776.5625,0.279495
778.125,0.047952
779.6875,0.067682
781.25,0.047678
782.8125,0.03343
784.375,0.046582
785.9375,0.047952
787.5,0.068504
789.0625,0.089329
790.625,0.052337
792.1875,0.044938
793.75,0.04302
795.3125,0.033019
796.875,0.025757
798.4375,0.023017
800,0.031512
801.5625,0.046582
803.125,0.046856
804.6875,0.053707
806.25,0.056995
807.8125,0.031101
809.375,0.042746
810.9375,0.039458
812.5,0.042746
814.0625,0.036718
815.625,0.029183
817.1875,0.028086
818.75,0.026579
820.3125,0.039184
821.875,0.041924
823.4375,0.034252
825,0.034252
826.5625,0.031512
828.125,0.025346
829.6875,0.031101
831.25,0.031101
832.8125,0.033841
834.375,0.041102
835.9375,0.049871
837.5,0.088233
839.0625,0.078916
840.625,0.029183
842.1875,0.017674
843.75,0.01877
845.3125,0.021099
846.875,0.050693
848.4375,0.07508
850,0.052337
851.5625,0.046034
853.125,0.037266
854.6875,0.053707
856.25,0.039184
857.8125,0.037266
859.375,0.034663
860.9375,0.072888
862.5,0.160024
864.0625,0.120018
865.625,0.045212
867.1875,0.044116
868.75,0.069874
870.3125,0.066037
871.875,0.052337
873.4375,0.028771
875,0.025757
876.5625,0.039458
878.125,0.051515
879.6875,0.043294
881.25,0.034663
882.8125,0.03891
884.375,0.050693
885.9375,0.230172
887.5,0.277302
889.0625,0.127691
890.625,0.097001
892.1875,0.055351
893.75,0.03754
895.3125,0.038088
896.875,0.029594
898.4375,0.035348
900,0.039458
901.5625,0.039458
903.125,0.04713
904.6875,0.050693
906.25,0.042746
907.8125,0.028086
909.375,0.028497
910.9375,0.032334
912.5,0.032745
914.0625,0.04576
915.625,0.049871
917.1875,0.026579
918.75,0.020688
920.3125,0.034252
921.875,0.042746
923.4375,0.032334
925,0.024935
926.5625,0.038088
928.125,0.03343
929.6875,0.030005
931.25,0.026579
932.8125,0.023428
934.375,0.035348
935.9375,0.060831
937.5,0.088233
939.0625,0.039458
940.625,0.026579
942.1875,0.023428
943.75,0.026853
945.3125,0.034252
946.875,0.026853
948.4375,0.026579
950,0.033841
951.5625,0.028497
953.125,0.017674
954.6875,0.031923
956.25,0.03343
957.8125,0.018085
959.375,0.029183
960.9375,0.042746
962.5,0.08604
964.0625,0.127691
965.625,0.107414
967.1875,0.133719
968.75,0.08056
970.3125,0.057543
971.875,0.049049
973.4375,0.060831
975,0.074532
976.5625,0.076176
978.125,0.065489
979.6875,0.056995
981.25,0.051515
982.8125,0.07234
984.375,0.073436
985.9375,0.056173
987.5,0.046856
989.0625,0.044116
990.625,0.045212
992.1875,0.03343
993.75,0.034663
995.3125,0.054529
996.875,0.046582
998.4375,0.053159
1000,0.099741
1001.563,0.080012
1003.125,0.04302
1004.688,0.040828
1006.25,0.051515
1007.813,0.053707
1009.375,0.049871
1010.938,0.149064
1012.5,0.160024
1014.063,0.062201
1015.625,0.060009
1017.188,0.044938
1018.75,0.04028
1020.313,0.031512
1021.875,0.023839
1023.438,0.029183
1025,0.037266
1026.563,0.042746
1028.125,0.042198
1029.688,0.044664
1031.25,0.055351
1032.813,0.054529
1034.375,0.04302
1035.938,0.035348
1037.5,0.04576
1039.063,0.035348
1040.625,0.03069
1042.188,0.034663
1043.75,0.038088
1045.313,0.03617
1046.875,0.035622
1048.438,0.031101
1050,0.031101
1051.563,0.03343
1053.125,0.031101
1054.688,0.028086
1056.25,0.030005
1057.813,0.042198
1059.375,0.04302
1060.938,0.036718
1062.5,0.133719
1064.063,0.199482
1065.625,0.088233
1067.188,0.03754
1068.75,0.03069
1070.313,0.044116
1071.875,0.052337
1073.438,0.042198
1075,0.049049
1076.563,0.054529
1078.125,0.045212
1079.688,0.054529
1081.25,0.071244
1082.813,0.056995
1084.375,0.028086
1085.938,0.047952
1087.5,0.063023
1089.063,0.121662
1090.625,0.106318
1092.188,0.060009
1093.75,0.036444
1095.313,0.044938
1096.875,0.049871
1098.438,0.02425
1100,0.069874
1101.563,0.092069
1103.125,0.033019
1104.688,0.03754
1106.25,0.049871
1107.813,0.04302
1109.375,0.052337
1110.938,0.089329
1112.5,0.08056
1114.063,0.049049
1115.625,0.03891
1117.188,0.049871
1118.75,0.055351
1120.313,0.046582
1121.875,0.044116
1123.438,0.053707
1125,0.050693
1126.563,0.055351
1128.125,0.063023
1129.688,0.036718
1131.25,0.03891
1132.813,0.045212
1134.375,0.042746
1135.938,0.041376
1137.5,0.054529
1139.063,0.044664
1140.625,0.029594
1142.188,0.04028
1143.75,0.053707
1145.313,0.051515
1146.875,0.049871
1148.438,0.074532
1150,0.093713
1151.563,0.059187
1153.125,0.073436
1154.688,0.091521
1156.25,0.090425
1157.813,0.199482
1159.375,0.91192
1160.938,1.218816
1162.5,0.480073
1164.063,0.145776
1165.625,0.07508
1167.188,0.061379
1168.75,0.054529
1170.313,0.069326
1171.875,0.103029
1173.438,0.19181
1175,0.554605
1176.563,0.42527
1178.125,0.132075
1179.688,0.112346
1181.25,0.07234
1182.813,0.050693
1184.375,0.057543
1185.938,0.066037
1187.5,0.057543
1189.063,0.051515
1190.625,0.069326
1192.188,0.093165
1193.75,0.094261
1195.313,0.070696
1196.875,0.04713
1198.438,0.061379
1200,0.064667
1201.563,0.101385
1203.125,0.078916
1204.688,0.069326
1206.25,0.056173
1207.813,0.056995
1209.375,0.086589
1210.938,0.067682
1212.5,0.049871
1214.063,0.047952
1215.625,0.054529
1217.188,0.042746
1218.75,0.051515
1220.313,0.050693
1221.875,0.030416
1223.438,0.063845
1225,0.064667
1226.563,0.034937
1228.125,0.060009
1229.688,0.07508
1231.25,0.064667
1232.813,0.051515
1234.375,0.049049
1235.938,0.041924
1237.5,0.063845
1239.063,0.067682
1240.625,0.063023
1242.188,0.066859
1243.75,0.050693
1245.313,0.053159
1246.875,0.080012
1248.438,0.157832
1250,0.274014
1251.563,0.163313
1253.125,0.088233
1254.688,0.076724
1256.25,0.368275
1257.813,0.460344
1259.375,0.178657
1260.938,0.104673
1262.5,0.083848
1264.063,0.07508
1265.625,0.070696
1267.188,0.085492
1268.75,0.081656
1270.313,0.053159
1271.875,0.046034
1273.438,0.121662
1275,0.11673
1276.563,0.063845
1278.125,0.04302
1279.688,0.03891
1281.25,0.034937
1282.813,0.042746
1284.375,0.041102
1285.938,0.051515
1287.5,0.058365
1289.063,0.109058
1290.625,0.089329
1292.188,0.056995
1293.75,0.053707
1295.313,0.053707
1296.875,0.052337
1298.438,0.066037
1300,0.055351
1301.563,0.085492
1303.125,0.050693
1304.688,0.051515
1306.25,0.059187
1307.813,0.063023
1309.375,0.059187
1310.938,0.040828
1312.5,0.043294
1314.063,0.064667
1315.625,0.067682
1317.188,0.07234
1318.75,0.064667
1320.313,0.057543
1321.875,0.085492
1323.438,0.322241
1325,0.328817
1326.563,0.153448
1328.125,0.176465
1329.688,0.078916
1331.25,0.044938
1332.813,0.056173
1334.375,0.073436
1335.938,0.067682
1337.5,0.057543
1339.063,0.076724
1340.625,0.060009
1342.188,0.04302
1343.75,0.03617
1345.313,0.056995
1346.875,0.065489
1348.438,0.07782
1350,0.103029
1351.563,0.092069
1353.125,0.085492
1354.688,0.076724
1356.25,0.051515
1357.813,0.04713
1359.375,0.03754
1360.938,0.039184
1362.5,0.04713
1364.063,0.053707
1365.625,0.047678
1367.188,0.03754
1368.75,0.03754
1370.313,0.041924
1371.875,0.044116
1373.438,0.038088
1375,0.04302
1376.563,0.065489
1378.125,0.066859
1379.688,0.052337
1381.25,0.04576
1382.813,0.050693
1384.375,0.063845
1385.938,0.051515
1387.5,0.04576
1389.063,0.039184
1390.625,0.036718
1392.188,0.029183
1393.75,0.023428
1395.313,0.034937
1396.875,0.060831
1398.438,0.120018
1400,0.106318
1401.563,0.095905
1403.125,0.062201
1404.688,0.060831
1406.25,0.072888
1407.813,0.066859
1409.375,0.069326
1410.938,0.045212
1412.5,0.086589
1414.063,0.097549
1415.625,0.055351
1417.188,0.054529
1418.75,0.046582
1420.313,0.039458
1421.875,0.04576
1423.438,0.04713
1425,0.056995
1426.563,0.056173
1428.125,0.061379
1429.688,0.070696
1431.25,0.089877
1432.813,0.08056
1434.375,0.059187
1435.938,0.063845
1437.5,0.056995
1439.063,0.060831
1440.625,0.07782
1442.188,0.060831
1443.75,0.064667
1445.313,0.090425
1446.875,0.121662
1448.438,0.202771
1450,0.558989
1451.563,0.504186
1453.125,0.135363
1454.688,0.056995
1456.25,0.073436
1457.813,0.076176
1459.375,0.066859
1460.938,0.138651
1462.5,0.163313
1464.063,0.11399
1465.625,0.081656
1467.188,0.098097
1468.75,0.120018
1470.313,0.107414
1471.875,0.157832
1473.438,0.199482
1475,0.15016
1476.563,0.087685
1478.125,0.07782
1479.688,0.120018
1481.25,0.118374
1482.813,0.132075
1484.375,0.164409
1485.938,0.289359
1487.5,0.68394
1489.063,0.534876
1490.625,0.175369
1492.188,0.094261
1493.75,0.120018
1495.313,0.097001
1496.875,0.092069
1498.438,0.160024
1500,0.218115
1501.563,0.146872
1503.125,0.106318
1504.688,0.07782
1506.25,0.089877
1507.813,0.103029
1509.375,0.106318
1510.938,0.11399
1512.5,0.236748
1514.063,0.261958
1515.625,0.120018
1517.188,0.061379
1518.75,0.049049
1520.313,0.041376
1521.875,0.092069
1523.438,0.118374
1525,0.146872
1526.563,0.107414
1528.125,0.110702
1529.688,0.124402
1531.25,0.098097
1532.813,0.115086
1534.375,0.313472
1535.938,0.626945
1537.5,0.442807
1539.063,0.146872
1540.625,0.173177
1542.188,0.218115
1543.75,0.221404
1545.313,0.368275
1546.875,0.933841
1548.438,0.73655
1550,0.240037
1551.563,0.121662
1553.125,0.101385
1554.688,0.139747
1556.25,0.188522
1557.813,0.277302
1559.375,0.548029
1560.938,2.262262
1562.5,3.29694
1564.063,1.429258
1565.625,0.377044
1567.188,0.243325
1568.75,0.209347
1570.313,0.097549
1571.875,0.121662
1573.438,0.110702
1575,0.15016
1576.563,0.118374
1578.125,0.109058
1579.688,0.093165
1581.25,0.07508
1582.813,0.057543
1584.375,0.078916
1585.938,0.127691
1587.5,0.313472
1589.063,0.306896
1590.625,0.127691
1592.188,0.093165
1593.75,0.115086
1595.313,0.120018
1596.875,0.08056
1598.438,0.069874
1600,0.064667
1601.563,0.065489
1603.125,0.070696
1604.688,0.059187
1606.25,0.054529
1607.813,0.061379
1609.375,0.08056
1610.938,0.124402
1612.5,0.145776
1614.063,0.122758
1615.625,0.103029
1617.188,0.064667
1618.75,0.086589
1620.313,0.068504
1621.875,0.066859
1623.438,0.084396
1625,0.132075
1626.563,0.146872
1628.125,0.080012
1629.688,0.120018
1631.25,0.146872
1632.813,0.138651
1634.375,0.163313
1635.938,0.45596
1637.5,0.405541
1639.063,0.145776
1640.625,0.081656
1642.188,0.202771
1643.75,0.42527
1645.313,0.258669
1646.875,0.092069
1648.438,0.067682
1650,0.058365
1651.563,0.057543
1653.125,0.053707
1654.688,0.065489
1656.25,0.064667
1657.813,0.093713
1659.375,0.124402
1660.938,0.152352
1662.5,0.120018
1664.063,0.065489
1665.625,0.072888
1667.188,0.094261
1668.75,0.101385
1670.313,0.11399
1671.875,0.129335
1673.438,0.088233
1675,0.08056
1676.563,0.071244
1678.125,0.069874
1679.688,0.065489
1681.25,0.067682
1682.813,0.056995
1684.375,0.047952
1685.938,0.066859
1687.5,0.065489
1689.063,0.093713
1690.625,0.167697
1692.188,0.202771
1693.75,0.127691
1695.313,0.084396
1696.875,0.07234
1698.438,0.076724
1700,0.059187
1701.563,0.056995
1703.125,0.051515
1704.688,0.057543
1706.25,0.063845
1707.813,0.056995
1709.375,0.074532
1710.938,0.145776
1712.5,0.088233
1714.063,0.062201
1715.625,0.069326
1717.188,0.071244
1718.75,0.065489
1720.313,0.055351
1721.875,0.052337
1723.438,0.04713
1725,0.07234
1726.563,0.110702
1728.125,0.068504
1729.688,0.067682
1731.25,0.103029
1732.813,0.084396
1734.375,0.055351
1735.938,0.043842
1737.5,0.04302
1739.063,0.054529
1740.625,0.080012
1742.188,0.044664
1743.75,0.050693
1745.313,0.067682
1746.875,0.062201
1748.438,0.04302
1750,0.04713
1751.563,0.066037
1753.125,0.062201
1754.688,0.061379
1756.25,0.066037
1757.813,0.064667
1759.375,0.039458
1760.938,0.047952
1762.5,0.049049
1764.063,0.036718
1765.625,0.026168
1767.188,0.044664
1768.75,0.042746
1770.313,0.044116
1771.875,0.054529
1773.438,0.048501
1775,0.059187
1776.563,0.047952
1778.125,0.041102
1779.688,0.02425
1781.25,0.027675
1782.813,0.038362
1784.375,0.095905
1785.938,0.101385
1787.5,0.059187
1789.063,0.073436
1790.625,0.083848
1792.188,0.047952
1793.75,0.038088
1795.313,0.042746
1796.875,0.033841
1798.438,0.058365
1800,0.124402
1801.563,0.082752
1803.125,0.029594
1804.688,0.028771
1806.25,0.032334
1807.813,0.032334
1809.375,0.032334
1810.938,0.04028
1812.5,0.040828
1814.063,0.03891
1815.625,0.032334
1817.188,0.026168
1818.75,0.028086
1820.313,0.016167
1821.875,0.026853
1823.438,0.031923
1825,0.03343
1826.563,0.042746
1828.125,0.03891
1829.688,0.038362
1831.25,0.045212
1832.813,0.051515
1834.375,0.053159
1835.938,0.109058
1837.5,0.187426
1839.063,0.11399
1840.625,0.034663
1842.188,0.021099
1843.75,0.024935
1845.313,0.034252
1846.875,0.055351
1848.438,0.109058
1850,0.076176
1851.563,0.033019
1853.125,0.030005
1854.688,0.030005
1856.25,0.027675
1857.813,0.033841
1859.375,0.044938
1860.938,0.034252
1862.5,0.044938
1864.063,0.025346
1865.625,0.035348
1867.188,0.031923
1868.75,0.064667
1870.313,0.067682
1871.875,0.138651
1873.438,0.398965
1875,0.596255
1876.563,0.282783
1878.125,0.066859
1879.688,0.046034
1881.25,0.042746
1882.813,0.03069
1884.375,0.044664
1885.938,0.048775
1887.5,0.035348
1889.063,0.039184
1890.625,0.028497
1892.188,0.017674
1893.75,0.029183
1895.313,0.042746
1896.875,0.040828
1898.438,0.044664
1900,0.067682
1901.563,0.073436
1903.125,0.041102
1904.688,0.026168
1906.25,0.030416
1907.813,0.029594
1909.375,0.023428
1910.938,0.028771
1912.5,0.022606
1914.063,0.029183
1915.625,0.032334
1917.188,0.032334
1918.75,0.034937
1920.313,0.038362
1921.875,0.043842
1923.438,0.058365
1925,0.053707
1926.563,0.07234
1928.125,0.101385
1929.688,0.078368
1931.25,0.053707
1932.813,0.101385
1934.375,0.164409
1935.938,0.089877
1937.5,0.021099
1939.063,0.030416
1940.625,0.026168
1942.188,0.02425
1943.75,0.027675
1945.313,0.029183
1946.875,0.056173
1948.438,0.167697
1950,0.164409
1951.563,0.063845
1953.125,0.029183
1954.688,0.031101
1956.25,0.023017
1957.813,0.03617
1959.375,0.036718
1960.938,0.028497
1962.5,0.028771
1964.063,0.03617
1965.625,0.047952
1967.188,0.11399
1968.75,0.15016
1970.313,0.078368
1971.875,0.030416
1973.438,0.022332
1975,0.027264
1976.563,0.026168
1978.125,0.01692
1979.688,0.018085
1981.25,0.01877
1982.813,0.018085
1984.375,0.021099
1985.938,0.01692
1987.5,0.01692
1989.063,0.01692
1990.625,0.02151
1992.188,0.02151
1993.75,0.020688
1995.313,0.020003
1996.875,0.023428
1998.438,0.024524
2000,0.018085
2001.563,0.017331
2003.125,0.018085
2004.688,0.012262
2006.25,0.016509
2007.813,0.021099
2009.375,0.019592
2010.938,0.027264
2012.5,0.032745
2014.063,0.040828
2015.625,0.033841
2017.188,0.049871
2018.75,0.047678
2020.313,0.021099
2021.875,0.035348
2023.438,0.055351
2025,0.038362
2026.563,0.02151
2028.125,0.039458
2029.688,0.103029
2031.25,0.132075
2032.813,0.062201
2034.375,0.019181
2035.938,0.02151
2037.5,0.016509
2039.063,0.019181
2040.625,0.022606
2042.188,0.021921
2043.75,0.01877
2045.313,0.020414
2046.875,0.028771
2048.438,0.026168
2050,0.022332
2051.563,0.012673
2053.125,0.01192
2054.688,0.02425
2056.25,0.026853
2057.813,0.020003
2059.375,0.023428
2060.938,0.025346
2062.5,0.031101
2064.063,0.044938
2065.625,0.046582
2067.188,0.022332
2068.75,0.019592
2070.313,0.020414
2071.875,0.023428
2073.438,0.018359
2075,0.01192
2076.563,0.02425
2078.125,0.03617
2079.688,0.027264
2081.25,0.021099
2082.813,0.017674
2084.375,0.016509
2085.938,0.018085
2087.5,0.012673
2089.063,0.013427
2090.625,0.014249
2092.188,0.016167
2093.75,0.01692
2095.313,0.018359
2096.875,0.026853
2098.438,0.031101
2100,0.018085
2101.563,0.01692
2103.125,0.012262
2104.688,0.014591
2106.25,0.017331
2107.813,0.018085
2109.375,0.015345
2110.938,0.01877
2112.5,0.03617
2114.063,0.034252
2115.625,0.020414
2117.188,0.014591
2118.75,0.021099
2120.313,0.013427
2121.875,0.013084
2123.438,0.016167
2125,0.013427
2126.563,0.043842
2128.125,0.056995
2129.688,0.032334
2131.25,0.015756
2132.813,0.016167
2134.375,0.019592
2135.938,0.016509
2137.5,0.010755
2139.063,0.015345
2140.625,0.01192
2142.188,0.020414
2143.75,0.019592
2145.313,0.012262
2146.875,0.007296
2148.438,0.010002
2150,0.011509
2151.563,0.014591
2153.125,0.012262
2154.688,0.011166
2156.25,0.012262
2157.813,0.014591
2159.375,0.02425
2160.938,0.041924
2162.5,0.030416
2164.063,0.017331
2165.625,0.016167
2167.188,0.016167
2168.75,0.018085
2170.313,0.016509
2171.875,0.032334
2173.438,0.033019
2175,0.037266
2176.563,0.031512
2178.125,0.023428
2179.688,0.015756
2181.25,0.013084
2182.813,0.021921
2184.375,0.044938
2185.938,0.127691
2187.5,0.170985
2189.063,0.078368
2190.625,0.02425
2192.188,0.01692
2193.75,0.01692
2195.313,0.01192
2196.875,0.015002
2198.438,0.009179
2200,0.016509
2201.563,0.021921
2203.125,0.017331
2204.688,0.017674
2206.25,0.017674
2207.813,0.013838
2209.375,0.010755
2210.938,0.022332
2212.5,0.041376
2214.063,0.034937
2215.625,0.01692
2217.188,0.013838
2218.75,0.016509
2220.313,0.023839
2221.875,0.018359
2223.438,0.017674
2225,0.020414
2226.563,0.017331
2228.125,0.014591
2229.688,0.015002
2231.25,0.013427
2232.813,0.018085
2234.375,0.012673
2235.938,0.013427
2237.5,0.02151
2239.063,0.028771
2240.625,0.014249
2242.188,0.011509
2243.75,0.015002
2245.313,0.013084
2246.875,0.014249
2248.438,0.011509
2250,0.015002
2251.563,0.013084
2253.125,0.012673
2254.688,0.013427
2256.25,0.013838
2257.813,0.015345
2259.375,0.016167
2260.938,0.041102
2262.5,0.033019
2264.063,0.010755
2265.625,0.012673
2267.188,0.013838
2268.75,0.013838
2270.313,0.015756
2271.875,0.01877
2273.438,0.018085
2275,0.01192
2276.563,0.015002
2278.125,0.009591
2279.688,0.00846
2281.25,0.009591
2282.813,0.006542
2284.375,0.007296
2285.938,0.00846
2287.5,0.011509
2289.063,0.012262
2290.625,0.013838
2292.188,0.012262
2293.75,0.009591
2295.313,0.00846
2296.875,0.010755
2298.438,0.009179
2300,0.005754
2301.563,0.003836
2303.125,0.010755
2304.688,0.015345
2306.25,0.009591
2307.813,0.010002
2309.375,0.013838
2310.938,0.023839
2312.5,0.019592
2314.063,0.01877
2315.625,0.020688
2317.188,0.016509
2318.75,0.012262
2320.313,0.03617
2321.875,0.036444
2323.438,0.01692
2325,0.014249
2326.563,0.012673
2328.125,0.013084
2329.688,0.015345
2331.25,0.013838
2332.813,0.014591
2334.375,0.012673
2335.938,0.014249
2337.5,0.012673
2339.063,0.012262
2340.625,0.016509
2342.188,0.016509
2343.75,0.01192
2345.313,0.012262
2346.875,0.01192
2348.438,0.011509
2350,0.020003
2351.563,0.018359
2353.125,0.011509
2354.688,0.006919
2356.25,0.011166
2357.813,0.015345
2359.375,0.017674
2360.938,0.017674
2362.5,0.014249
2364.063,0.011509
2365.625,0.008083
2367.188,0.00846
2368.75,0.010002
2370.313,0.016167
2371.875,0.01192
2373.438,0.006131
2375,0.007672
2376.563,0.011166
2378.125,0.010755
2379.688,0.010755
2381.25,0.009179
2382.813,0.011166
2384.375,0.011509
2385.938,0.010755
2387.5,0.01192
2389.063,0.006919
2390.625,0.011166
2392.188,0.012673
2393.75,0.01192
2395.313,0.009591
2396.875,0.006542
2398.438,0.009179
2400,0.007296
2401.563,0.008837
2403.125,0.010344
2404.688,0.01192
2406.25,0.005378
2407.813,0.01192
2409.375,0.018359
2410.938,0.020414
2412.5,0.01192
2414.063,0.010002
2415.625,0.010755
2417.188,0.020414
2418.75,0.018359
2420.313,0.007672
2421.875,0.010344
2423.438,0.013084
2425,0.01877
2426.563,0.013838
2428.125,0.006919
2429.688,0.006919
2431.25,0.006919
2432.813,0.00846
2434.375,0.013084
2435.938,0.012673
2437.5,0.008083
2439.063,0.006919
2440.625,0.007672
2442.188,0.00846
2443.75,0.006919
2445.313,0.009591
2446.875,0.01192
2448.438,0.010755
2450,0.009591
2451.563,0.013084
2453.125,0.01192
2454.688,0.011166
2456.25,0.009179
2457.813,0.00846
2459.375,0.007672
2460.938,0.009591
2462.5,0.013427
2464.063,0.010344
2465.625,0.006542
2467.188,0.006542
2468.75,0.011166
2470.313,0.016167
2471.875,0.036444
2473.438,0.061379
2475,0.03891
2476.563,0.015002
2478.125,0.01192
2479.688,0.01192
2481.25,0.014249
2482.813,0.010755
2484.375,0.013427
2485.938,0.019592
2487.5,0.021921
2489.063,0.013084
2490.625,0.014249
2492.188,0.013084
2493.75,0.017331
2495.313,0.030005
2496.875,0.070696
2498.438,0.172081
2500,0.224692
2501.563,0.112346
2503.125,0.03617
2504.688,0.028497
2506.25,0.028497
2507.813,0.019592
2509.375,0.006131
2510.938,0.013084
2512.5,0.019592
2514.063,0.026853
2515.625,0.025346
2517.188,0.011166
2518.75,0.009591
2520.313,0.013427
2521.875,0.010002
2523.438,0.018359
2525,0.042198
2526.563,0.038362
2528.125,0.014249
2529.688,0.010002
2531.25,0.010002
2532.813,0.010002
2534.375,0.008083
2535.938,0.008837
2537.5,0.012262
2539.063,0.012673
2540.625,0.010755
2542.188,0.007296
2543.75,0.010002
2545.313,0.009179
2546.875,0.011509
2548.438,0.014249
2550,0.014591
2551.563,0.02151
2553.125,0.015756
2554.688,0.008083
2556.25,0.00846
2557.813,0.009179
2559.375,0.00846
2560.938,0.013084
2562.5,0.013084
2564.063,0.009179
2565.625,0.005001
2567.188,0.010755
2568.75,0.011166
2570.313,0.01192
2571.875,0.01192
2573.438,0.010755
2575,0.01192
2576.563,0.010002
2578.125,0.008837
2579.688,0.009179
2581.25,0.006919
2582.813,0.009179
2584.375,0.012262
2585.938,0.008837
2587.5,0.006542
2589.063,0.008083
2590.625,0.010344
2592.188,0.00846
2593.75,0.008837
2595.313,0.008083
2596.875,0.006919
2598.438,0.008837
2600,0.012262
2601.563,0.011509
2603.125,0.013427
2604.688,0.013084
2606.25,0.011166
2607.813,0.010755
2609.375,0.010344
2610.938,0.010755
2612.5,0.00846
2614.063,0.006919
2615.625,0.009591
2617.188,0.01192
2618.75,0.013838
2620.313,0.011509
2621.875,0.005754
2623.438,0.010344
2625,0.014591
2626.563,0.014249
2628.125,0.010755
2629.688,0.010344
2631.25,0.007672
2632.813,0.010344
2634.375,0.010755
2635.938,0.012673
2637.5,0.009179
2639.063,0.009179
2640.625,0.009591
2642.188,0.009179
2643.75,0.012673
2645.313,0.011166
2646.875,0.010755
2648.438,0.013084
2650,0.010755
2651.563,0.013084
2653.125,0.013084
2654.688,0.013427
2656.25,0.017331
2657.813,0.013427
2659.375,0.011509
2660.938,0.005754
2662.5,0.00846
2664.063,0.008837
2665.625,0.007672
2667.188,0.009179
2668.75,0.010344
2670.313,0.006919
2671.875,0.010002
2673.438,0.009179
2675,0.01192
2676.563,0.01192
2678.125,0.009591
2679.688,0.010344
2681.25,0.010002
2682.813,0.007672
2684.375,0.007672
2685.938,0.009591
2687.5,0.009591
2689.063,0.006131
2690.625,0.009179
2692.188,0.010002
2693.75,0.010002
2695.313,0.009591
2696.875,0.010755
2698.438,0.01192
2700,0.009591
2701.563,0.01192
2703.125,0.015345
2704.688,0.016509
2706.25,0.034663
2707.813,0.053707
2709.375,0.034663
2710.938,0.023428
2712.5,0.018085
2714.063,0.009179
2715.625,0.00846
2717.188,0.011509
2718.75,0.009591
2720.313,0.010344
2721.875,0.013427
2723.438,0.011166
2725,0.012262
2726.563,0.009591
2728.125,0.008083
2729.688,0.007672
2731.25,0.010002
2732.813,0.009591
2734.375,0.009591
2735.938,0.020414
2737.5,0.028086
2739.063,0.016167
2740.625,0.007672
2742.188,0.010344
2743.75,0.009179
2745.313,0.00846
2746.875,0.010755
2748.438,0.011166
2750,0.00846
2751.563,0.008083
2753.125,0.010755
2754.688,0.007296
2756.25,0.009179
2757.813,0.009591
2759.375,0.012673
2760.938,0.014591
2762.5,0.00846
2764.063,0.008083
2765.625,0.006131
2767.188,0.007672
2768.75,0.009179
2770.313,0.011166
2771.875,0.010344
2773.438,0.008837
2775,0.00846
2776.563,0.010002
2778.125,0.007296
2779.688,0.01192
2781.25,0.012673
2782.813,0.020688
2784.375,0.033841
2785.938,0.053707
2787.5,0.03891
2789.063,0.01692
2790.625,0.01192
2792.188,0.013084
2793.75,0.013838
2795.313,0.01692
2796.875,0.022606
2798.438,0.023839
2800,0.026579
2801.563,0.013427
2803.125,0.020003
2804.688,0.028086
2806.25,0.026168
2807.813,0.028771
2809.375,0.066037
2810.938,0.15016
2812.5,0.190714
2814.063,0.099741
2815.625,0.036718
2817.188,0.018085
2818.75,0.018085
2820.313,0.014249
2821.875,0.011509
2823.438,0.011166
2825,0.013838
2826.563,0.013838
2828.125,0.010755
2829.688,0.012262
2831.25,0.010344
2832.813,0.010002
2834.375,0.010002
2835.938,0.02151
2837.5,0.042746
2839.063,0.04028
2840.625,0.01692
2842.188,0.010344
2843.75,0.010002
2845.313,0.009591
2846.875,0.007672
2848.438,0.007672
2850,0.010344
2851.563,0.010002
2853.125,0.011166
2854.688,0.008837
2856.25,0.007296
2857.813,0.009591
2859.375,0.010755
2860.938,0.013838
2862.5,0.011509
2864.063,0.01692
2865.625,0.013084
2867.188,0.014249
2868.75,0.012262
2870.313,0.011509
2871.875,0.010755
2873.438,0.008837
2875,0.007296
2876.563,0.007296
2878.125,0.009179
2879.688,0.005001
2881.25,0.005754
2882.813,0.008083
2884.375,0.009591
2885.938,0.010344
2887.5,0.006919
2889.063,0.007296
2890.625,0.006542
2892.188,0.011509
2893.75,0.012673
2895.313,0.014249
2896.875,0.01192
2898.438,0.010755
2900,0.011166
2901.563,0.009591
2903.125,0.007672
2904.688,0.005754
2906.25,0.006131
2907.813,0.006542
2909.375,0.006542
2910.938,0.007296
2912.5,0.007296
2914.063,0.00846
2915.625,0.011166
2917.188,0.010002
2918.75,0.009179
2920.313,0.007672
2921.875,0.007672
2923.438,0.008083
2925,0.006131
2926.563,0.007672
2928.125,0.006131
2929.688,0.006919
2931.25,0.00846
2932.813,0.008837
2934.375,0.008083
2935.938,0.00846
2937.5,0.00846
2939.063,0.00846
2940.625,0.011166
2942.188,0.010002
2943.75,0.005754
2945.313,0.011509
2946.875,0.011166
2948.438,0.00846
2950,0.006919
2951.563,0.005754
2953.125,0.008837
2954.688,0.008837
2956.25,0.008083
2957.813,0.007296
2959.375,0.00846
2960.938,0.010002
2962.5,0.007296
2964.063,0.007296
2965.625,0.007672
2967.188,0.007296
2968.75,0.006542
2970.313,0.005754
2971.875,0.007296
2973.438,0.00846
2975,0.008083
2976.563,0.005378
2978.125,0.006131
2979.688,0.006542
2981.25,0.005378
2982.813,0.009591
2984.375,0.008837
2985.938,0.010002
2987.5,0.013427
2989.063,0.011509
2990.625,0.008837
2992.188,0.008083
2993.75,0.006542
2995.313,0.006542
2996.875,0.008837
2998.438,0.010755
3000,0.008083
3001.563,0.005754
3003.125,0.005754
3004.688,0.003836
3006.25,0.005378
3007.813,0.003836
3009.375,0.005378
3010.938,0.00846
3012.5,0.010755
3014.063,0.010344
3015.625,0.010002
3017.188,0.010002
3018.75,0.010002
3020.313,0.009591
3021.875,0.009591
3023.438,0.008083
3025,0.006542
3026.563,0.007296
3028.125,0.007672
3029.688,0.006919
3031.25,0.00846
3032.813,0.008083
3034.375,0.009591
3035.938,0.011509
3037.5,0.010002
3039.063,0.008083
3040.625,0.006131
3042.188,0.007296
3043.75,0.006919
3045.313,0.006131
3046.875,0.006542
3048.438,0.007296
3050,0.006919
3051.563,0.007672
3053.125,0.006919
3054.688,0.006542
3056.25,0.006542
3057.813,0.006131
3059.375,0.003836
3060.938,0.006542
3062.5,0.007672
3064.063,0.007296
3065.625,0.006542
3067.188,0.006131
3068.75,0.007296
3070.313,0.008837
3071.875,0.010344
3073.438,0.008837
3075,0.005754
3076.563,0.006919
3078.125,0.007296
3079.688,0.009591
3081.25,0.008837
3082.813,0.008083
3084.375,0.006131
3085.938,0.006919
3087.5,0.00846
3089.063,0.008083
3090.625,0.009179
3092.188,0.007672
3093.75,0.015756
3095.313,0.022606
3096.875,0.030416
3098.438,0.043842
3100,0.03343
3101.563,0.013838
3103.125,0.007672
3104.688,0.009591
3106.25,0.012262
3107.813,0.015002
3109.375,0.023017
3110.938,0.020003
3112.5,0.015756
3114.063,0.00846
3115.625,0.007672
3117.188,0.011166
3118.75,0.016509
3120.313,0.022606
3121.875,0.041376
3123.438,0.081656
3125,0.095905
3126.563,0.048775
3128.125,0.020003
3129.688,0.009591
3131.25,0.009591
3132.813,0.00846
3134.375,0.007296
3135.938,0.00846
3137.5,0.008837
3139.063,0.008083
3140.625,0.006542
3142.188,0.003836
3143.75,0.003836
3145.313,0.005001
3146.875,0.006542
3148.438,0.009591
3150,0.020003
3151.563,0.016167
3153.125,0.007296
3154.688,0.005754
3156.25,0.005001
3157.813,0.005001
3159.375,0.005001
3160.938,0.005754
3162.5,0.003836
3164.063,0.003066
3165.625,0.003836
3167.188,0.003836
3168.75,0.005001
3170.313,0.006131
3171.875,0.00846
3173.438,0.008837
3175,0.006542
3176.563,0.007296
3178.125,0.007296
3179.688,0.005001
3181.25,0.005001
3182.813,0.00846
3184.375,0.009591
3185.938,0.008083
3187.5,0.00846
3189.063,0.008837
3190.625,0.006542
3192.188,0.007672
3193.75,0.006542
3195.313,0.006542
3196.875,0.007672
3198.438,0.009179
3200,0.007672
3201.563,0.006131
3203.125,0.006919
3204.688,0.005378
3206.25,0.009591
3207.813,0.006919
3209.375,0.005754
3210.938,0.003459
3212.5,0.00459
3214.063,0.007672
3215.625,0.008083
3217.188,0.006131
3218.75,0.005378
3220.313,0.005001
3221.875,0.00423
3223.438,0.005754
3225,0.005001
3226.563,0.00459
3228.125,0.006542
3229.688,0.006131
3231.25,0.00423
3232.813,0.005378
3234.375,0.007296
3235.938,0.006919
3237.5,0.006131
3239.063,0.006542
3240.625,0.005754
3242.188,0.005378
3243.75,0.007296
3245.313,0.006542
3246.875,0.005001
3248.438,0.005378
3250,0.005001
3251.563,0.005378
3253.125,0.006919
3254.688,0.005754
3256.25,0.00423
3257.813,0.00459
3259.375,0.005378
3260.938,0.00459
3262.5,0.005754
3264.063,0.005378
3265.625,0.005001
3267.188,0.00423
3268.75,0.005378
3270.313,0.006131
3271.875,0.009179
3273.438,0.011166
3275,0.010344
3276.563,0.008837
3278.125,0.013838
3279.688,0.016509
3281.25,0.011509
3282.813,0.005754
3284.375,0.00423
3285.938,0.005378
3287.5,0.005754
3289.063,0.005754
3290.625,0.00459
3292.188,0.00459
3293.75,0.005754
3295.313,0.005378
3296.875,0.005001
3298.438,0.005378
3300,0.00459
3301.563,0.003836
3303.125,0.003836
3304.688,0.005001
3306.25,0.00459
3307.813,0.003459
3309.375,0.003459
3310.938,0.003836
3312.5,0.005378
3314.063,0.006919
3315.625,0.005378
3317.188,0.00459
3318.75,0.005001
3320.313,0.005754
3321.875,0.005378
3323.438,0.00423
3325,0.003836
3326.563,0.00423
3328.125,0.006542
3329.688,0.005754
3331.25,0.005754
3332.813,0.007296
3334.375,0.00846
3335.938,0.00846
3337.5,0.005378
3339.063,0.006542
3340.625,0.00459
3342.188,0.003066
3343.75,0.00423
3345.313,0.003836
3346.875,0.006919
3348.438,0.008083
3350,0.006131
3351.563,0.005001
3353.125,0.005754
3354.688,0.006542
3356.25,0.00459
3357.813,0.00423
3359.375,0.006131
3360.938,0.005754
3362.5,0.005378
3364.063,0.005001
3365.625,0.003836
3367.188,0.005001
3368.75,0.006542
3370.313,0.010344
3371.875,0.018359
3373.438,0.030416
3375,0.03069
3376.563,0.017331
3378.125,0.010002
3379.688,0.008837
3381.25,0.007296
3382.813,0.00459
3384.375,0.006919
3385.938,0.005754
3387.5,0.003836
3389.063,0.005001
3390.625,0.005001
3392.188,0.00459
3393.75,0.003459
3395.313,0.005001
3396.875,0.006542
3398.438,0.006542
3400,0.003836
3401.563,0.00459
3403.125,0.006919
3404.688,0.008083
3406.25,0.007672
3407.813,0.008083
3409.375,0.009179
3410.938,0.015345
3412.5,0.013838
3414.063,0.009179
3415.625,0.009179
3417.188,0.008837
3418.75,0.007672
3420.313,0.007296
3421.875,0.00846
3423.438,0.00846
3425,0.006131
3426.563,0.003066
3428.125,0.00459
3429.688,0.006919
3431.25,0.007672
3432.813,0.005754
3434.375,0.007672
3435.938,0.011166
3437.5,0.014591
3439.063,0.010755
3440.625,0.006919
3442.188,0.005378
3443.75,0.005001
3445.313,0.007672
3446.875,0.008837
3448.438,0.006131
3450,0.006131
3451.563,0.003459
3453.125,0.003459
3454.688,0.005754
3456.25,0.003459
3457.813,0.005754
3459.375,0.007296
3460.938,0.006131
3462.5,0.006919
3464.063,0.008083
3465.625,0.008837
3467.188,0.010002
3468.75,0.014591
3470.313,0.015345
3471.875,0.01192
3473.438,0.01192
3475,0.009591
3476.563,0.008083
3478.125,0.010002
3479.688,0.010002
3481.25,0.010344
3482.813,0.010344
3484.375,0.011509
3485.938,0.012262
3487.5,0.008837
3489.063,0.005754
3490.625,0.006542
3492.188,0.00423
3493.75,0.009591
3495.313,0.013427
3496.875,0.014249
3498.438,0.00846
3500,0.005754
3501.563,0.005001
3503.125,0.006131
3504.688,0.006542
3506.25,0.005001
3507.813,0.005001
3509.375,0.009179
3510.938,0.015345
3512.5,0.013838
3514.063,0.009179
3515.625,0.00459
3517.188,0.006131
3518.75,0.007672
3520.313,0.005378
3521.875,0.005001
3523.438,0.003066
3525,0.003836
3526.563,0.002689
3528.125,0.003459
3529.688,0.005378
3531.25,0.005754
3532.813,0.003836
3534.375,0.003459
3535.938,0.00423
3537.5,0.005754
3539.063,0.006131
3540.625,0.003459
3542.188,0.002689
3543.75,0.003459
3545.313,0.003459
3546.875,0.005001
3548.438,0.005754
3550,0.00423
3551.563,0.005001
3553.125,0.005378
3554.688,0.00459
3556.25,0.00459
3557.813,0.00459
3559.375,0.006919
3560.938,0.006542
3562.5,0.005754
3564.063,0.005754
3565.625,0.007296
3567.188,0.006919
3568.75,0.005378
3570.313,0.005754
3571.875,0.005378
3573.438,0.005378
3575,0.008083
3576.563,0.006919
3578.125,0.005378
3579.688,0.00423
3581.25,0.00459
3582.813,0.007672
3584.375,0.011166
3585.938,0.010344
3587.5,0.006131
3589.063,0.00423
3590.625,0.005754
3592.188,0.006542
3593.75,0.005754
3595.313,0.00459
3596.875,0.003459
3598.438,0.003836
3600,0.00459
3601.563,0.00423
3603.125,0.003836
3604.688,0.00423
3606.25,0.00459
3607.813,0.005001
3609.375,0.002689
3610.938,0.002295
3612.5,0.003066
3614.063,0.002295
3615.625,0.002689
3617.188,0.003459
3618.75,0.002689
3620.313,0.00459
3621.875,0.003836
3623.438,0.003066
3625,0.003066
3626.563,0.003459
3628.125,0.00459
3629.688,0.003459
3631.25,0.002689
3632.813,0.00459
3634.375,0.00423
3635.938,0.003459
3637.5,0.002689
3639.063,0.003836
3640.625,0.00459
3642.188,0.003459
3643.75,0.003066
3645.313,0.005001
3646.875,0.00423
3648.438,0.003836
3650,0.003836
3651.563,0.003836
3653.125,0.003836
3654.688,0.003066
3656.25,0.003459
3657.813,0.003459
3659.375,0.006131
3660.938,0.006542
3662.5,0.005378
3664.063,0.00423
3665.625,0.00459
3667.188,0.005001
3668.75,0.005001
3670.313,0.00459
3671.875,0.005001
3673.438,0.005001
3675,0.006542
3676.563,0.006131
3678.125,0.005001
3679.688,0.00423
3681.25,0.002689
3682.813,0.003066
3684.375,0.00423
3685.938,0.005001
3687.5,0.003836
3689.063,0.00423
3690.625,0.00459
3692.188,0.002689
3693.75,0.003066
3695.313,0.003459
3696.875,0.003836
3698.438,0.00423
3700,0.003459
3701.563,0.003066
3703.125,0.00423
3704.688,0.00423
3706.25,0.003459
3707.813,0.003066
3709.375,0.003066
3710.938,0.003836
3712.5,0.00423
3714.063,0.003066
3715.625,0.002295
3717.188,0.003066
3718.75,0.00423
3720.313,0.00459
3721.875,0.005378
3723.438,0.007296
3725,0.00459
3726.563,0.003459
3728.125,0.003459
3729.688,0.005001
3731.25,0.003836
3732.813,0.002689
3734.375,0.00423
3735.938,0.005001
3737.5,0.005001
3739.063,0.003459
3740.625,0.003066
3742.188,0.002689
3743.75,0.003066
3745.313,0.005378
3746.875,0.008837
3748.438,0.012262
3750,0.011509
3751.563,0.005754
3753.125,0.00423
3754.688,0.005001
3756.25,0.005001
3757.813,0.005378
3759.375,0.00846
3760.938,0.010002
3762.5,0.008083
3764.063,0.006919
3765.625,0.005378
3767.188,0.003836
3768.75,0.003836
3770.313,0.00423
3771.875,0.005001
3773.438,0.005378
3775,0.006542
3776.563,0.005378
3778.125,0.00423
3779.688,0.003459
3781.25,0.003066
3782.813,0.003836
3784.375,0.005001
3785.938,0.00423
3787.5,0.00423
3789.063,0.003836
3790.625,0.00459
3792.188,0.003836
3793.75,0.003836
3795.313,0.002689
3796.875,0.003836
3798.438,0.00459
3800,0.005378
3801.563,0.005001
3803.125,0.005001
3804.688,0.005001
3806.25,0.00459
3807.813,0.00459
3809.375,0.005378
3810.938,0.00459
3812.5,0.00423
3814.063,0.00423
3815.625,0.00459
3817.188,0.00459
3818.75,0.003836
3820.313,0.00459
3821.875,0.005754
3823.438,0.009591
3825,0.006919
3826.563,0.00423
3828.125,0.00423
3829.688,0.00423
3831.25,0.003459
3832.813,0.003066
3834.375,0.00423
3835.938,0.00459
3837.5,0.005001
3839.063,0.003836
3840.625,0.003066
3842.188,0.003066
3843.75,0.002689
3845.313,0.003836
3846.875,0.00459
3848.438,0.003066
3850,0.003066
3851.563,0.003459
3853.125,0.003836
3854.688,0.007672
3856.25,0.009591
3857.813,0.009179
3859.375,0.005378
3860.938,0.003066
3862.5,0.003066
3864.063,0.003066
3865.625,0.003459
3867.188,0.006542
3868.75,0.007296
3870.313,0.005001
3871.875,0.005754
3873.438,0.00459
3875,0.002689
3876.563,0.00459
3878.125,0.00459
3879.688,0.003836
3881.25,0.006131
3882.813,0.006542
3884.375,0.006919
3885.938,0.006131
3887.5,0.005754
3889.063,0.006131
3890.625,0.00423
3892.188,0.003459
3893.75,0.002689
3895.313,0.005001
3896.875,0.007672
3898.438,0.010002
3900,0.006542
3901.563,0.003066
3903.125,0.003066
3904.688,0.003459
3906.25,0.00423
3907.813,0.00423
3909.375,0.00423
3910.938,0.005001
3912.5,0.005378
3914.063,0.003459
3915.625,0.003066
3917.188,0.003836
3918.75,0.002295
3920.313,0.003459
3921.875,0.003066
3923.438,0.003836
3925,0.00423
3926.563,0.003066
3928.125,0.003066
3929.688,0.00423
3931.25,0.003836
3932.813,0.00423
3934.375,0.005001
3935.938,0.005001
3937.5,0.003066
3939.063,0.001918
3940.625,0.003066
3942.188,0.00423
3943.75,0.005001
3945.313,0.00459
3946.875,0.002295
3948.438,0.002689
3950,0.00423
3951.563,0.002689
3953.125,0.003459
3954.688,0.00459
3956.25,0.005001
3957.813,0.005754
3959.375,0.006542
3960.938,0.006131
3962.5,0.005754
3964.063,0.005754
3965.625,0.005754
3967.188,0.003066
3968.75,0.005001
3970.313,0.006919
3971.875,0.006131
3973.438,0.006542
3975,0.005001
3976.563,0.00459
3978.125,0.003836
3979.688,0.003459
3981.25,0.00459
3982.813,0.005001
3984.375,0.003836
3985.938,0.00459
3987.5,0.005001
3989.063,0.00423
3990.625,0.003066
3992.188,0.003836
3993.75,0.003459
3995.313,0.003836
3996.875,0.002689
3998.438,0.002689
4000,0.002295
4001.563,0.002689
4003.125,0.002295
4004.688,0.003066
4006.25,0.003066
4007.813,0.003459
4009.375,0.001918
4010.938,0.003066
4012.5,0.003836
4014.063,0.003836
4015.625,0.00459
4017.188,0.003459
4018.75,0.002295
4020.313,0.002295
4021.875,0.002689
4023.438,0.002689
4025,0.003836
4026.563,0.003066
4028.125,0.002295
4029.688,0.002295
4031.25,0.002295
4032.813,0.00423
4034.375,0.003836
4035.938,0.003836
4037.5,0.005001
4039.063,0.003066
4040.625,0.002295
4042.188,0.001918
4043.75,0.002295
4045.313,0.003836
4046.875,0.003836
4048.438,0.002295
4050,0.003066
4051.563,0.003836
4053.125,0.003836
4054.688,0.00423
4056.25,0.003066
4057.813,0.003836
4059.375,0.00423
4060.938,0.006919
4062.5,0.009179
4064.063,0.005754
4065.625,0.002295
4067.188,0.001533
4068.75,0.001147
4070.313,0.002295
4071.875,0.002295
4073.438,0.001918
4075,0.002295
4076.563,0.001918
4078.125,0.003459
4079.688,0.003066
4081.25,0.002689
4082.813,0.002689
4084.375,0.003459
4085.938,0.002689
4087.5,0.003459
4089.063,0.003459
4090.625,0.002689
4092.188,0.003066
4093.75,0.002689
4095.313,0.003459
4096.875,0.002689
4098.438,0.002689
4100,0.002689
4101.563,0.002689
4103.125,0.002295
4104.688,0.00423
4106.25,0.002295
4107.813,0.003836
4109.375,0.003459
4110.938,0.001918
4112.5,0.002689
4114.063,0.003459
4115.625,0.003459
4117.188,0.003459
4118.75,0.002689
4120.313,0.002295
4121.875,0.002689
4123.438,0.002689
4125,0.002689
4126.563,0.001147
4128.125,0.002689
4129.688,0.002689
4131.25,0.003836
4132.813,0.00423
4134.375,0.005001
4135.938,0.006542
4137.5,0.005001
4139.063,0.003066
4140.625,0.003459
4142.188,0.002295
4143.75,0.002689
4145.313,0.002689
4146.875,0.003066
4148.438,0.00423
4150,0.003459
4151.563,0.003459
4153.125,0.003066
4154.688,0.002295
4156.25,0.001918
4157.813,0.003066
4159.375,0.00459
4160.938,0.003459
4162.5,0.002295
4164.063,0.002689
4165.625,0.002689
4167.188,0.003066
4168.75,0.002295
4170.313,0.003836
4171.875,0.003459
4173.438,0.003066
4175,0.003459
4176.563,0.002295
4178.125,0.002689
4179.688,0.003066
4181.25,0.002295
4182.813,0.002295
4184.375,0.002689
4185.938,0.003066
4187.5,0.003459
4189.063,0.002295
4190.625,0.002689
4192.188,0.003459
4193.75,0.003459
4195.313,0.003066
4196.875,0.002689
4198.438,0.003066
4200,0.003066
4201.563,0.003066
4203.125,0.002689
4204.688,0.002689
4206.25,0.002689
4207.813,0.003836
4209.375,0.003459
4210.938,0.003836
4212.5,0.003836
4214.063,0.003066
4215.625,0.002295
4217.188,0.002689
4218.75,0.003066
4220.313,0.003066
4221.875,0.002295
4223.438,0.002689
4225,0.003066
4226.563,0.002295
4228.125,0.001918
4229.688,0.002689
4231.25,0.002295
4232.813,0.002295
4234.375,0.001918
4235.938,0.003836
4237.5,0.00423
4239.063,0.003459
4240.625,0.003459
4242.188,0.003836
4243.75,0.003836
4245.313,0.003066
4246.875,0.003459
4248.438,0.003459
4250,0.003836
4251.563,0.003066
4253.125,0.003459
4254.688,0.003066
4256.25,0.003066
4257.813,0.003066
4259.375,0.003459
4260.938,0.003459
4262.5,0.003459
4264.063,0.002689
4265.625,0.003066
4267.188,0.003836
4268.75,0.00423
4270.313,0.003066
4271.875,0.003459
4273.438,0.002689
4275,0.003066
4276.563,0.002295
4278.125,0.002689
4279.688,0.003836
4281.25,0.003066
4282.813,0.005378
4284.375,0.006542
4285.938,0.00459
4287.5,0.003066
4289.063,0.002689
4290.625,0.002295
4292.188,0.003459
4293.75,0.00459
4295.313,0.00423
4296.875,0.003459
4298.438,0.003066
4300,0.003066
4301.563,0.003459
4303.125,0.003836
4304.688,0.002295
4306.25,0.002689
4307.813,0.001918
4309.375,0.002689
4310.938,0.003066
4312.5,0.002689
4314.063,0.003836
4315.625,0.003459
4317.188,0.001918
4318.75,0.003066
4320.313,0.003836
4321.875,0.001918
4323.438,0.002295
4325,0.003459
4326.563,0.003836
4328.125,0.003459
4329.688,0.003066
4331.25,0.001918
4332.813,0.003066
4334.375,0.00459
4335.938,0.005001
4337.5,0.00459
4339.063,0.00459
4340.625,0.00423
4342.188,0.005754
4343.75,0.005378
4345.313,0.00459
4346.875,0.003836
4348.438,0.006131
4350,0.008837
4351.563,0.00846
4353.125,0.005754
4354.688,0.005754
4356.25,0.00459
4357.813,0.003459
4359.375,0.001533
4360.938,0.003459
4362.5,0.003836
4364.063,0.003459
4365.625,0.003459
4367.188,0.003066
4368.75,0.002689
4370.313,0.003836
4371.875,0.005001
4373.438,0.005378
4375,0.008083
4376.563,0.006919
4378.125,0.005001
4379.688,0.00459
4381.25,0.003836
4382.813,0.003459
4384.375,0.003836
4385.938,0.003066
4387.5,0.002689
4389.063,0.00423
4390.625,0.00459
4392.188,0.003836
4393.75,0.003066
4395.313,0.003836
4396.875,0.003459
4398.438,0.003459
4400,0.00459
4401.563,0.003066
4403.125,0.003066
4404.688,0.003066
4406.25,0.003066
4407.813,0.003459
4409.375,0.003459
4410.938,0.00459
4412.5,0.003836
4414.063,0.003836
4415.625,0.003066
4417.188,0.003066
4418.75,0.003459
4420.313,0.003836
4421.875,0.003836
4423.438,0.003459
4425,0.003459
4426.563,0.003066
4428.125,0.003459
4429.688,0.003459
4431.25,0.00423
4432.813,0.003066
4434.375,0.005001
4435.938,0.00423
4437.5,0.003836
4439.063,0.003836
4440.625,0.00423
4442.188,0.003066
4443.75,0.003459
4445.313,0.00423
4446.875,0.003836
4448.438,0.00459
4450,0.00423
4451.563,0.002295
4453.125,0.002689
4454.688,0.002689
4456.25,0.002689
4457.813,0.003459
4459.375,0.003459
4460.938,0.002689
4462.5,0.002689
4464.063,0.003836
4465.625,0.003066
4467.188,0.002689
4468.75,0.002295
4470.313,0.001533
4471.875,0.002295
4473.438,0.003459
4475,0.003459
4476.563,0.003836
4478.125,0.00423
4479.688,0.001918
4481.25,0.001918
4482.813,0.003066
4484.375,0.002689
4485.938,0.002689
4487.5,0.003066
4489.063,0.003459
4490.625,0.003459
4492.188,0.002689
4493.75,0.003066
4495.313,0.002689
4496.875,0.003459
4498.438,0.00423
4500,0.003459
4501.563,0.002689
4503.125,0.002295
4504.688,0.001533
4506.25,0.001918
4507.813,0.002295
4509.375,0.002689
4510.938,0.001918
4512.5,0.001918
4514.063,0.002295
4515.625,0.002295
4517.188,0.002295
4518.75,0.003459
4520.313,0.002689
4521.875,0.003066
4523.438,0.003459
4525,0.00423
4526.563,0.00423
4528.125,0.003836
4529.688,0.003066
4531.25,0.003066
4532.813,0.003066
4534.375,0.003836
4535.938,0.003836
4537.5,0.003459
4539.063,0.002689
4540.625,0.003066
4542.188,0.002689
4543.75,0.002689
4545.313,0.001918
4546.875,0.002689
4548.438,0.003836
4550,0.003459
4551.563,0.002689
4553.125,0.003066
4554.688,0.003459
4556.25,0.003459
4557.813,0.003066
4559.375,0.002689
4560.938,0.003459
4562.5,0.003459
4564.063,0.003459
4565.625,0.003066
4567.188,0.003066
4568.75,0.00459
4570.313,0.00459
4571.875,0.003836
4573.438,0.00423
4575,0.003459
4576.563,0.003459
4578.125,0.003066
4579.688,0.002295
4581.25,0.003459
4582.813,0.002689
4584.375,0.002689
4585.938,0.003066
4587.5,0.002689
4589.063,0.002689
4590.625,0.002689
4592.188,0.003066
4593.75,0.003836
4595.313,0.003066
4596.875,0.002689
4598.438,0.003066
4600,0.003066
4601.563,0.003459
4603.125,0.002689
4604.688,0.001918
4606.25,0.003836
4607.813,0.003836
4609.375,0.00423
4610.938,0.003836
4612.5,0.003836
4614.063,0.002295
4615.625,0.001918
4617.188,0.003066
4618.75,0.002689
4620.313,0.002295
4621.875,0.003459
4623.438,0.003459
4625,0.003459
4626.563,0.003066
4628.125,0.00423
4629.688,0.003459
4631.25,0.002689
4632.813,0.003066
4634.375,0.003066
4635.938,0.002689
4637.5,0.002689
4639.063,0.003459
4640.625,0.002689
4642.188,0.00459
4643.75,0.00459
4645.313,0.003836
4646.875,0.002689
4648.438,0.003459
4650,0.003836
4651.563,0.002689
4653.125,0.002689
4654.688,0.002689
4656.25,0.003459
4657.813,0.003836
4659.375,0.003066
4660.938,0.00423
4662.5,0.003836
4664.063,0.002295
4665.625,0.003066
4667.188,0.003066
4668.75,0.003066
4670.313,0.003836
4671.875,0.003836
4673.438,0.002295
4675,0.003459
4676.563,0.001918
4678.125,0.002295
4679.688,0.002689
4681.25,0.003836
4682.813,0.003459
4684.375,0.003459
4685.938,0.003836
4687.5,0.00423
4689.063,0.003066
4690.625,0.002689
4692.188,0.003066
4693.75,0.003066
4695.313,0.003066
4696.875,0.002689
4698.438,0.001918
4700,0.001533
4701.563,0.003066
4703.125,0.003836
4704.688,0.002689
4706.25,0.002689
4707.813,0.003066
4709.375,0.002689
4710.938,0.001918
4712.5,0.003066
4714.063,0.003459
4715.625,0.003459
4717.188,0.003066
4718.75,0.002295
4720.313,0.002689
4721.875,0.003066
4723.438,0.003459
4725,0.003836
4726.563,0.00423
4728.125,0.003836
4729.688,0.003066
4731.25,0.002689
4732.813,0.003836
4734.375,0.003459
4735.938,0.003066
4737.5,0.003459
4739.063,0.00423
4740.625,0.00423
4742.188,0.003066
4743.75,0.003066
4745.313,0.002689
4746.875,0.003459
4748.438,0.003459
4750,0.003459
4751.563,0.003836
4753.125,0.00423
4754.688,0.00423
4756.25,0.003459
4757.813,0.002689
4759.375,0.00423
4760.938,0.005001
4762.5,0.00459
4764.063,0.003836
4765.625,0.003459
4767.188,0.002689
4768.75,0.003459
4770.313,0.005001
4771.875,0.00459
4773.438,0.002295
4775,0.002689
4776.563,0.001918
4778.125,0.002689
4779.688,0.002689
4781.25,0.002689
4782.813,0.001918
4784.375,0.001918
4785.938,0.003459
4787.5,0.002689
4789.063,0.002689
4790.625,0.002689
4792.188,0.001533
4793.75,0.001533
4795.313,0.002689
4796.875,0.001918
4798.438,0.002295
4800,0.002689
4801.563,0.002295
4803.125,0.002689
4804.688,0.001918
4806.25,0.003066
4807.813,0.003836
4809.375,0.002689
4810.938,0.003459
4812.5,0.002295
4814.063,0.002295
4815.625,0.003066
4817.188,0.00423
4818.75,0.00423
4820.313,0.00459
4821.875,0.005001
4823.438,0.003459
4825,0.003066
4826.563,0.003836
4828.125,0.003836
4829.688,0.002689
4831.25,0.003066
4832.813,0.00423
4834.375,0.00459
4835.938,0.00423
4837.5,0.00459
4839.063,0.002295
4840.625,0.001918
4842.188,0.003459
4843.75,0.003066
4845.313,0.002295
4846.875,0.002689
4848.438,0.001918
4850,0.002295
4851.563,0.002689
4853.125,0.002689
4854.688,0.003066
4856.25,0.002689
4857.813,0.002689
4859.375,0.001918
4860.938,0.002295
4862.5,0.002295
4864.063,0.002689
4865.625,0.003066
4867.188,0.003066
4868.75,0.003066
4870.313,0.002689
4871.875,0.001918
4873.438,0.001918
4875,0.001918
4876.563,0.002295
4878.125,0.002295
4879.688,0.003066
4881.25,0.003066
4882.813,0.003459
4884.375,0.002295
4885.938,0.002295
4887.5,0.003066
4889.063,0.003066
4890.625,0.002295
4892.188,0.001533
4893.75,0.001147
4895.313,0.002689
4896.875,0.003459
4898.438,0.001918
4900,0.002295
4901.563,0.001533
4903.125,0.002295
4904.688,0.002689
4906.25,0.001918
4907.813,0.002295
4909.375,0.003066
4910.938,0.002295
4912.5,0.002689
4914.063,0.003459
4915.625,0.003836
4917.188,0.002689
4918.75,0.003066
4920.313,0.002689
4921.875,0.002295
4923.438,0.002689
4925,0.002689
4926.563,0.002295
4928.125,0.002295
4929.688,0.001533
4931.25,0.001533
4932.813,0.001918
4934.375,0.001918
4935.938,0.001918
4937.5,0.003066
4939.063,0.002689
4940.625,0.002689
4942.188,0.001918
4943.75,0.002689
4945.313,0.003066
4946.875,0.001533
4948.438,0.001918
4950,0.001918
4951.563,0.001918
4953.125,0.001533
4954.688,0.002295
4956.25,0.001918
4957.813,0.002295
4959.375,0.002295
4960.938,0.003459
4962.5,0.001918
4964.063,0.002295
4965.625,0.002295
4967.188,0.002689
4968.75,0.003459
4970.313,0.003836
4971.875,0.00459
4973.438,0.00423
4975,0.00423
4976.563,0.003459
4978.125,0.003459
4979.688,0.003459
4981.25,0.002689
4982.813,0.003066
4984.375,0.003459
4985.938,0.003459
4987.5,0.003459
4989.063,0.003459
4990.625,0.002295
4992.188,0.001918
4993.75,0.002689
4995.313,0.003836
4996.875,0.00459
4998.438,0.007296