Frecuencia(Hz),mm/Seg(PC)
3.125,0.532684
4.6875,0.429654
6.25,0.519531
7.8125,0.62256
9.375,0.504186
10.9375,0.453768
12.5,0.320049
14.0625,1.3065
15.625,1.850144
17.1875,0.784777
18.75,0.458152
20.3125,0.254285
21.875,0.287167
23.4375,0.188522
25,0.219211
26.5625,0.287167
28.125,0.209347
29.6875,0.339778
31.25,0.298128
32.8125,0.23346
34.375,0.306896
35.9375,0.240037
37.5,0.146872
39.0625,0.18633
40.625,0.247709
42.1875,0.259766
43.75,0.172081
45.3125,0.223596
46.875,0.885614
48.4375,4.156249
50,3.858121
51.5625,0.65325
53.125,0.23346
54.6875,0.14468
56.25,0.128239
57.8125,0.298128
59.375,0.381428
60.9375,0.210443
62.5,0.266342
64.0625,0.548029
65.625,0.418694
67.1875,0.115634
68.75,0.128787
70.3125,0.113442
71.875,0.129883
73.4375,0.46692
75,0.495418
76.5625,0.143583
78.125,0.099193
79.6875,0.207155
81.25,0.335393
82.8125,0.194002
84.375,0.115634
85.9375,0.11673
87.5,0.075628
89.0625,0.192906
90.625,0.188522
92.1875,0.08604
93.75,0.078916
95.3125,0.578718
96.875,0.999604
98.4375,0.480073
100,0.214827
101.5625,0.137007
103.125,0.096453
104.6875,0.102481
106.25,0.08056
107.8125,0.058913
109.375,0.075628
110.9375,0.207155
112.5,0.210443
114.0625,0.066585
115.625,0.106318
117.1875,0.10851
118.75,0.068504
120.3125,0.042472
121.875,0.053707
123.4375,0.064941
125,0.064393
126.5625,0.061379
128.125,0.0696
129.6875,0.054255
131.25,0.048501
132.8125,0.048227
134.375,0.078916
135.9375,0.07782
137.5,0.07782
139.0625,0.067682
140.625,0.076724
142.1875,0.103577
143.75,0.090973
145.3125,0.063571
146.875,0.057817
148.4375,0.071792
150,0.040006
151.5625,0.046582
153.125,0.064941
154.6875,0.060831
156.25,0.058913
157.8125,0.046034
159.375,0.046582
160.9375,0.053159
162.5,0.088233
164.0625,0.096453
165.625,0.050693
167.1875,0.049597
168.75,0.071792
170.3125,0.080012
171.875,0.068504
173.4375,0.037814
175,0.04439
176.5625,0.062475
178.125,0.096453
179.6875,0.101385
181.25,0.080012
182.8125,0.050145
184.375,0.042472
185.9375,0.07234
187.5,0.061927
189.0625,0.061379
190.625,0.112894
192.1875,0.355123
193.75,0.381428
195.3125,0.121662
196.875,0.120566
198.4375,0.210443
200,0.355123
201.5625,0.192906
203.125,0.063571
204.6875,0.049049
206.25,0.053707
207.8125,0.054255
209.375,0.052337
210.9375,0.048227
212.5,0.063023
214.0625,0.068504
215.625,0.048501
217.1875,0.04028
218.75,0.049049
220.3125,0.049597
221.875,0.053707
223.4375,0.065489
225,0.047678
226.5625,0.054803
228.125,0.043568
229.6875,0.075628
231.25,0.099193
232.8125,0.068504
234.375,0.066585
235.9375,0.044938
237.5,0.065489
239.0625,0.082752
240.625,0.060283
242.1875,0.07234
243.75,0.160024
245.3125,0.35293
246.875,0.344162
248.4375,0.196194
250,0.103577
251.5625,0.106318
253.125,0.095357
254.6875,0.080012
256.25,0.113442
257.8125,0.129883
259.375,0.149064
260.9375,0.129883
262.5,0.107414
264.0625,0.067682
265.625,0.092069
267.1875,0.095357
268.75,0.070696
270.3125,0.08056
271.875,0.080012
273.4375,0.096453
275,0.07782
276.5625,0.050145
278.125,0.041376
279.6875,0.036718
281.25,0.036718
282.8125,0.030005
284.375,0.027949
285.9375,0.04439
287.5,0.049049
289.0625,0.18633
290.625,0.207155
292.1875,0.067682
293.75,0.059461
295.3125,0.090973
296.875,0.102481
298.4375,0.054803
300,0.101385
301.5625,0.046582
303.125,0.021236
304.6875,0.052337
306.25,0.051241
307.8125,0.038362
309.375,0.035348
310.9375,0.207155
312.5,0.348546
314.0625,0.149064
315.625,0.029457
317.1875,0.023291
318.75,0.022058
320.3125,0.042472
321.875,0.080012
323.4375,0.054255
325,0.024798
326.5625,0.04439
328.125,0.039458
329.6875,0.031512
331.25,0.028634
332.8125,0.033293
334.375,0.034252
335.9375,0.034252
337.5,0.056721
339.0625,0.036718
340.625,0.023291
342.1875,0.045486
343.75,0.07234
345.3125,0.052611
346.875,0.029457
348.4375,0.026579
350,0.027949
351.5625,0.024113
353.125,0.033293
354.6875,0.037814
356.25,0.029183
357.8125,0.02151
359.375,0.022743
360.9375,0.023291
362.5,0.015345
364.0625,0.020003
365.625,0.026579
367.1875,0.030005
368.75,0.0348
370.3125,0.101385
371.875,0.126047
373.4375,0.050693
375,0.037814
376.5625,0.038362
378.125,0.024113
379.6875,0.026579
381.25,0.043568
382.8125,0.048227
384.375,0.409925
385.9375,1.718618
387.5,1.569554
389.0625,0.274014
390.625,0.052337
392.1875,0.042472
393.75,0.056447
395.3125,0.027401
396.875,0.038362
398.4375,0.034252
400,0.055351
401.5625,0.121662
403.125,0.096453
404.6875,0.049597
406.25,0.051789
407.8125,0.053159
409.375,0.044116
410.9375,0.041924
412.5,0.056447
414.0625,0.053159
415.625,0.049597
417.1875,0.088233
418.75,0.133171
420.3125,0.097001
421.875,0.093165
423.4375,0.064941
425,0.060009
426.5625,0.056447
428.125,0.075628
429.6875,0.07782
431.25,0.084944
432.8125,0.097001
434.375,0.114538
435.9375,0.143583
437.5,0.073436
439.0625,0.070696
440.625,0.070696
442.1875,0.084944
443.75,0.066585
445.3125,0.071792
446.875,0.060009
448.4375,0.057817
450,0.153448
451.5625,0.194002
453.125,0.087137
454.6875,0.074532
456.25,0.064119
457.8125,0.063023
459.375,0.055899
460.9375,0.064393
462.5,0.051241
464.0625,0.067682
465.625,0.058913
467.1875,0.071792
468.75,0.073436
470.3125,0.043568
471.875,0.03206
473.4375,0.020962
475,0.033293
476.5625,0.049049
478.125,0.073436
479.6875,0.058913
481.25,0.149064
482.8125,0.385812
484.375,0.289359
485.9375,0.051241
487.5,0.028909
489.0625,0.020962
490.625,0.060283
492.1875,0.068504
493.75,0.030142
495.3125,0.031786
496.875,0.033841
498.4375,0.052611
500,0.08604
501.5625,0.08056
503.125,0.045486
504.6875,0.026305
506.25,0.026579
507.8125,0.024524
509.375,0.024524
510.9375,0.022195
512.5,0.052337
514.0625,0.087137
515.625,0.129883
517.1875,0.060283
518.75,0.021784
520.3125,0.038362
521.875,0.044116
523.4375,0.031786
525,0.021236
526.5625,0.037266
528.125,0.056721
529.6875,0.036718
531.25,0.04028
532.8125,0.030416
534.375,0.048227
535.9375,0.031786
537.5,0.026168
539.0625,0.038362
540.625,0.053707
542.1875,0.040006
543.75,0.028634
545.3125,0.021236
546.875,0.028634
548.4375,0.030964
550,0.046582
551.5625,0.048501
553.125,0.035896
554.6875,0.030964
556.25,0.0348
557.8125,0.040828
559.375,0.050145
560.9375,0.050145
562.5,0.056447
564.0625,0.060009
565.625,0.055351
567.1875,0.060009
568.75,0.054803
570.3125,0.043568
571.875,0.060283
573.4375,0.057269
575,0.092069
576.5625,0.112894
578.125,0.163313
579.6875,0.315664
581.25,0.209347
582.8125,0.067682
584.375,0.0696
585.9375,0.07782
587.5,0.110702
589.0625,0.143583
590.625,0.129883
592.1875,0.088781
593.75,0.082752
595.3125,0.113442
596.875,0.10851
598.4375,0.127143
600,0.128239
601.5625,0.092069
603.125,0.081656
604.6875,0.090973
606.25,0.08604
607.8125,0.058365
609.375,0.0696
610.9375,0.075628
612.5,0.096453
614.0625,0.063023
615.625,0.059461
617.1875,0.067682
618.75,0.074532
620.3125,0.078916
621.875,0.076724
623.4375,0.532684
625,0.819851
626.5625,0.293743
628.125,0.097001
629.6875,0.070696
631.25,0.089877
632.8125,0.117826
634.375,0.063023
635.9375,0.053707
637.5,0.157832
639.0625,0.247709
640.625,0.115634
642.1875,0.04713
643.75,0.04302
645.3125,0.048227
646.875,0.051789
648.4375,0.051241
650,0.080012
651.5625,0.054803
653.125,0.055899
654.6875,0.051789
656.25,0.051789
657.8125,0.050693
659.375,0.037814
660.9375,0.063023
662.5,0.056721
664.0625,0.040006
665.625,0.033841
667.1875,0.026853
668.75,0.030416
670.3125,0.027675
671.875,0.026853
673.4375,0.030964
675,0.055899
676.5625,0.083848
678.125,0.035348
679.6875,0.032471
681.25,0.04713
682.8125,0.046034
684.375,0.035348
685.9375,0.03617
687.5,0.053159
689.0625,0.050693
690.625,0.037266
692.1875,0.03206
693.75,0.033841
695.3125,0.031512
696.875,0.043568
698.4375,0.130979
700,0.101385
701.5625,0.037814
703.125,0.053159
704.6875,0.037814
706.25,0.044116
707.8125,0.032197
709.375,0.021784
710.9375,0.012262
712.5,0.023565
714.0625,0.037814
715.625,0.028634
717.1875,0.024113
718.75,0.021784
720.3125,0.02014
721.875,0.024113
723.4375,0.020003
725,0.025072
726.5625,0.022743
728.125,0.018085
729.6875,0.017126
731.25,0.018359
732.8125,0.01692
734.375,0.018359
735.9375,0.020414
737.5,0.025346
739.0625,0.02562
740.625,0.035896
742.1875,0.036718
743.75,0.02836
745.3125,0.027127
746.875,0.030416
748.4375,0.029457
750,0.025894
751.5625,0.021236
753.125,0.02151
754.6875,0.029183
756.25,0.04028
757.8125,0.073436
759.375,0.044116
760.9375,0.020414
762.5,0.017948
764.0625,0.017674
765.625,0.022469
767.1875,0.03069
768.75,0.03069
770.3125,0.053707
771.875,0.339778
773.4375,0.556797
775,0.240037
776.5625,0.035896
778.125,0.023017
779.6875,0.026853
781.25,0.020962
782.8125,0.015345
784.375,0.024113
785.9375,0.027401
787.5,0.052337
789.0625,0.067682
790.625,0.03617
792.1875,0.025346
793.75,0.030005
795.3125,0.033293
796.875,0.026579
798.4375,0.022058
800,0.030005
801.5625,0.02562
803.125,0.027127
804.6875,0.044116
806.25,0.054803
807.8125,0.051241
809.375,0.040006
810.9375,0.029457
812.5,0.030964
814.0625,0.02425
815.625,0.024524
817.1875,0.030005
818.75,0.041376
820.3125,0.035896
821.875,0.02836
823.4375,0.023291
825,0.025894
826.5625,0.027949
828.125,0.018907
829.6875,0.02151
831.25,0.026853
832.8125,0.031786
834.375,0.040828
835.9375,0.04302
837.5,0.051241
839.0625,0.063023
840.625,0.0696
842.1875,0.054255
843.75,0.0348
845.3125,0.037266
846.875,0.075628
848.4375,0.0696
850,0.049597
851.5625,0.055351
853.125,0.041924
854.6875,0.043568
856.25,0.029183
857.8125,0.025346
859.375,0.018633
860.9375,0.020962
862.5,0.050145
864.0625,0.030005
865.625,0.022195
867.1875,0.048227
868.75,0.08604
870.3125,0.075628
871.875,0.035896
873.4375,0.040006
875,0.025894
876.5625,0.020414
878.125,0.024798
879.6875,0.016372
881.25,0.0174
882.8125,0.022469
884.375,0.044938
885.9375,0.133171
887.5,0.117826
889.0625,0.055351
890.625,0.02151
892.1875,0.018633
893.75,0.015345
895.3125,0.015345
896.875,0.021784
898.4375,0.023017
900,0.024798
901.5625,0.030005
903.125,0.02014
904.6875,0.02425
906.25,0.022743
907.8125,0.023017
909.375,0.014591
910.9375,0.020414
912.5,0.019181
914.0625,0.019181
915.625,0.018633
917.1875,0.028909
918.75,0.026305
920.3125,0.023291
921.875,0.029731
923.4375,0.020962
925,0.01692
926.5625,0.022469
928.125,0.029731
929.6875,0.024524
931.25,0.0174
932.8125,0.028909
934.375,0.031786
935.9375,0.11673
937.5,0.157832
939.0625,0.047678
940.625,0.025346
942.1875,0.01692
943.75,0.029183
945.3125,0.029457
946.875,0.025072
948.4375,0.02425
950,0.032745
951.5625,0.03891
953.125,0.029731
954.6875,0.023565
956.25,0.024113
957.8125,0.020414
959.375,0.035896
960.9375,0.061379
962.5,0.099193
964.0625,0.101385
965.625,0.07782
967.1875,0.07782
968.75,0.050693
970.3125,0.043568
971.875,0.027401
973.4375,0.022058
975,0.018359
976.5625,0.02425
978.125,0.023017
979.6875,0.016646
981.25,0.031512
982.8125,0.064119
984.375,0.04713
985.9375,0.024113
987.5,0.020003
989.0625,0.034252
990.625,0.020962
992.1875,0.017948
993.75,0.011029
995.3125,0.014112
996.875,0.014112
998.4375,0.016646
1000,0.025072
1001.563,0.024113
1003.125,0.018085
1004.688,0.018907
1006.25,0.019729
1007.813,0.015893
1009.375,0.059461
1010.938,0.143583
1012.5,0.100289
1014.063,0.025072
1015.625,0.026579
1017.188,0.024113
1018.75,0.022469
1020.313,0.018907
1021.875,0.025894
1023.438,0.017126
1025,0.018085
1026.563,0.014591
1028.125,0.009728
1029.688,0.019455
1031.25,0.031786
1032.813,0.035896
1034.375,0.021236
1035.938,0.014591
1037.5,0.009728
1039.063,0.017948
1040.625,0.023017
1042.188,0.026853
1043.75,0.028909
1045.313,0.025072
1046.875,0.03069
1048.438,0.027675
1050,0.021236
1051.563,0.026168
1053.125,0.019181
1054.688,0.019455
1056.25,0.023291
1057.813,0.035896
1059.375,0.023839
1060.938,0.028909
1062.5,0.055899
1064.063,0.046034
1065.625,0.031786
1067.188,0.032471
1068.75,0.029183
1070.313,0.023565
1071.875,0.0174
1073.438,0.038362
1075,0.083848
1076.563,0.07234
1078.125,0.048227
1079.688,0.045486
1081.25,0.065489
1082.813,0.040828
1084.375,0.049597
1085.938,0.070696
1087.5,0.031512
1089.063,0.052337
1090.625,0.040006
1092.188,0.029457
1093.75,0.04439
1095.313,0.057817
1096.875,0.03617
1098.438,0.030142
1100,0.096453
1101.563,0.104673
1103.125,0.052337
1104.688,0.03206
1106.25,0.030005
1107.813,0.03891
1109.375,0.048227
1110.938,0.061927
1112.5,0.026853
1114.063,0.008974
1115.625,0.023839
1117.188,0.026579
1118.75,0.015893
1120.313,0.020688
1121.875,0.022469
1123.438,0.033293
1125,0.040828
1126.563,0.040828
1128.125,0.030964
1129.688,0.043568
1131.25,0.037814
1132.813,0.027127
1134.375,0.02562
1135.938,0.026579
1137.5,0.045486
1139.063,0.031512
1140.625,0.03206
1142.188,0.02836
1143.75,0.037814
1145.313,0.036718
1146.875,0.028634
1148.438,0.048227
1150,0.033293
1151.563,0.02836
1153.125,0.040006
1154.688,0.037266
1156.25,0.057269
1157.813,0.266342
1159.375,0.710245
1160.938,0.523915
1162.5,0.102481
1164.063,0.051789
1165.625,0.052337
1167.188,0.041924
1168.75,0.030964
1170.313,0.053159
1171.875,0.055899
1173.438,0.113442
1175,0.245517
1176.563,0.143583
1178.125,0.030964
1179.688,0.030142
1181.25,0.050693
1182.813,0.04302
1184.375,0.031238
1185.938,0.033293
1187.5,0.026168
1189.063,0.040006
1190.625,0.0696
1192.188,0.058913
1193.75,0.032745
1195.313,0.029457
1196.875,0.025072
1198.438,0.031512
1200,0.035348
1201.563,0.043568
1203.125,0.029457
1204.688,0.029457
1206.25,0.030005
1207.813,0.071792
1209.375,0.092069
1210.938,0.0348
1212.5,0.022195
1214.063,0.030142
1215.625,0.030142
1217.188,0.02562
1218.75,0.017126
1220.313,0.020003
1221.875,0.036718
1223.438,0.073436
1225,0.064393
1226.563,0.040828
1228.125,0.040006
1229.688,0.039458
1231.25,0.023839
1232.813,0.056447
1234.375,0.070696
1235.938,0.028634
1237.5,0.029731
1239.063,0.037814
1240.625,0.03891
1242.188,0.022743
1243.75,0.018907
1245.313,0.022195
1246.875,0.041376
1248.438,0.157832
1250,0.188522
1251.563,0.068504
1253.125,0.036718
1254.688,0.103577
1256.25,0.221404
1257.813,0.133171
1259.375,0.041924
1260.938,0.035348
1262.5,0.029457
1264.063,0.041924
1265.625,0.03617
1267.188,0.026305
1268.75,0.0348
1270.313,0.026579
1271.875,0.030142
1273.438,0.036718
1275,0.046034
1276.563,0.048227
1278.125,0.03069
1279.688,0.035896
1281.25,0.030005
1282.813,0.035348
1284.375,0.028909
1285.938,0.030964
1287.5,0.034252
1289.063,0.057269
1290.625,0.048227
1292.188,0.0348
1293.75,0.033841
1295.313,0.036718
1296.875,0.037814
1298.438,0.035896
1300,0.073436
1301.563,0.093165
1303.125,0.068504
1304.688,0.057817
1306.25,0.08056
1307.813,0.098097
1309.375,0.094261
1310.938,0.057269
1312.5,0.068504
1314.063,0.066585
1315.625,0.056721
1317.188,0.055351
1318.75,0.0696
1320.313,0.103577
1321.875,0.190714
1323.438,0.462536
1325,0.42527
1326.563,0.405541
1328.125,0.249901
1329.688,0.064393
1331.25,0.082752
1332.813,0.094261
1334.375,0.095357
1335.938,0.073436
1337.5,0.059461
1339.063,0.081656
1340.625,0.055899
1342.188,0.048227
1343.75,0.056721
1345.313,0.068504
1346.875,0.08056
1348.438,0.104673
1350,0.177561
1351.563,0.196194
1353.125,0.149064
1354.688,0.061927
1356.25,0.070696
1357.813,0.060831
1359.375,0.057269
1360.938,0.03891
1362.5,0.051241
1364.063,0.052611
1365.625,0.084944
1367.188,0.111798
1368.75,0.088781
1370.313,0.054255
1371.875,0.052611
1373.438,0.073436
1375,0.149064
1376.563,0.18633
1378.125,0.074532
1379.688,0.044116
1381.25,0.061379
1382.813,0.055899
1384.375,0.048227
1385.938,0.068504
1387.5,0.081656
1389.063,0.061927
1390.625,0.056447
1392.188,0.044938
1393.75,0.049597
1395.313,0.043568
1396.875,0.111798
1398.438,0.172081
1400,0.202771
1401.563,0.179753
1403.125,0.083848
1404.688,0.054803
1406.25,0.0696
1407.813,0.053707
1409.375,0.048501
1410.938,0.068504
1412.5,0.151256
1414.063,0.128239
1415.625,0.042472
1417.188,0.056447
1418.75,0.049597
1420.313,0.054255
1421.875,0.048501
1423.438,0.058365
1425,0.106318
1426.563,0.084944
1428.125,0.060009
1429.688,0.049049
1431.25,0.051789
1432.813,0.057269
1434.375,0.044116
1435.938,0.030142
1437.5,0.04713
1439.063,0.053159
1440.625,0.028223
1442.188,0.04713
1443.75,0.141391
1445.313,0.217019
1446.875,0.177561
1448.438,0.745319
1450,1.148668
1451.563,0.480073
1453.125,0.076724
1454.688,0.0696
1456.25,0.050693
1457.813,0.031512
1459.375,0.043568
1460.938,0.098097
1462.5,0.093165
1464.063,0.074532
1465.625,0.100289
1467.188,0.074532
1468.75,0.051241
1470.313,0.056447
1471.875,0.113442
1473.438,0.094261
1475,0.120566
1476.563,0.059461
1478.125,0.058365
1479.688,0.08604
1481.25,0.094261
1482.813,0.064393
1484.375,0.08056
1485.938,0.190714
1487.5,0.41431
1489.063,0.212635
1490.625,0.102481
1492.188,0.114538
1493.75,0.092069
1495.313,0.082752
1496.875,0.146872
1498.438,0.348546
1500,0.298128
1501.563,0.104673
1503.125,0.065489
1504.688,0.063023
1506.25,0.057817
1507.813,0.073436
1509.375,0.110702
1510.938,0.080012
1512.5,0.093165
1514.063,0.120566
1515.625,0.081656
1517.188,0.066585
1518.75,0.08604
1520.313,0.071792
1521.875,0.056721
1523.438,0.047678
1525,0.042472
1526.563,0.128787
1528.125,0.137007
1529.688,0.123854
1531.25,0.151256
1532.813,0.163313
1534.375,0.372659
1535.938,0.587487
1537.5,0.293743
1539.063,0.235652
1540.625,0.282783
1542.188,0.167697
1543.75,0.355123
1545.313,1.3065
1546.875,1.657238
1548.438,0.613792
1550,0.282783
1551.563,0.194002
1553.125,0.198386
1554.688,0.196194
1556.25,0.221404
1557.813,0.282783
1559.375,1.157436
1560.938,3.998416
1562.5,4.103638
1564.063,1.096057
1565.625,0.420886
1567.188,0.256477
1568.75,0.196194
1570.313,0.151256
1571.875,0.302512
1573.438,0.282783
1575,0.235652
1576.563,0.207155
1578.125,0.122758
1579.688,0.16112
1581.25,0.146872
1582.813,0.130979
1584.375,0.128787
1585.938,0.359507
1587.5,0.784777
1589.063,0.519531
1590.625,0.157832
1592.188,0.121662
1593.75,0.112894
1595.313,0.202771
1596.875,0.157832
1598.438,0.112894
1600,0.128239
1601.563,0.137007
1603.125,0.124951
1604.688,0.096453
1606.25,0.095357
1607.813,0.106318
1609.375,0.115634
1610.938,0.143583
1612.5,0.270726
1614.063,0.339778
1615.625,0.123854
1617.188,0.056721
1618.75,0.128787
1620.313,0.302512
1621.875,0.320049
1623.438,0.169889
1625,0.214827
1626.563,0.223596
1628.125,0.190714
1629.688,0.14468
1631.25,0.117826
1632.813,0.129883
1634.375,0.462536
1635.938,0.894383
1637.5,0.475689
1639.063,0.181945
1640.625,0.274014
1642.188,0.640097
1643.75,0.662018
1645.313,0.192906
1646.875,0.114538
1648.438,0.133171
1650,0.16112
1651.563,0.179753
1653.125,0.118922
1654.688,0.127143
1656.25,0.104673
1657.813,0.167697
1659.375,0.231268
1660.938,0.192906
1662.5,0.137007
1664.063,0.092069
1665.625,0.143583
1667.188,0.133171
1668.75,0.098097
1670.313,0.110702
1671.875,0.097001
1673.438,0.093165
1675,0.153448
1676.563,0.10851
1678.125,0.095357
1679.688,0.105221
1681.25,0.074532
1682.813,0.061379
1684.375,0.044116
1685.938,0.07234
1687.5,0.118922
1689.063,0.133171
1690.625,0.153448
1692.188,0.172081
1693.75,0.104673
1695.313,0.046582
1696.875,0.041924
1698.438,0.074532
1700,0.103577
1701.563,0.07782
1703.125,0.084944
1704.688,0.080012
1706.25,0.084944
1707.813,0.087137
1709.375,0.120566
1710.938,0.105221
1712.5,0.074532
1714.063,0.07234
1715.625,0.043568
1717.188,0.070696
1718.75,0.07782
1720.313,0.092069
1721.875,0.063023
1723.438,0.095357
1725,0.179753
1726.563,0.16112
1728.125,0.066585
1729.688,0.074532
1731.25,0.113442
1732.813,0.067682
1734.375,0.0696
1735.938,0.088233
1737.5,0.094261
1739.063,0.097001
1740.625,0.097001
1742.188,0.064393
1743.75,0.068504
1745.313,0.046582
1746.875,0.054255
1748.438,0.054803
1750,0.070696
1751.563,0.075628
1753.125,0.049049
1754.688,0.070696
1756.25,0.07234
1757.813,0.054803
1759.375,0.056721
1760.938,0.098097
1762.5,0.110702
1764.063,0.078916
1765.625,0.060009
1767.188,0.071792
1768.75,0.088781
1770.313,0.065489
1771.875,0.054255
1773.438,0.102481
1775,0.090973
1776.563,0.056721
1778.125,0.058365
1779.688,0.07234
1781.25,0.078916
1782.813,0.240037
1784.375,0.46692
1785.938,0.261958
1787.5,0.198386
1789.063,0.157832
1790.625,0.048501
1792.188,0.088781
1793.75,0.070696
1795.313,0.061379
1796.875,0.063571
1798.438,0.237844
1800,0.405541
1801.563,0.235652
1803.125,0.071792
1804.688,0.03206
1806.25,0.052611
1807.813,0.073436
1809.375,0.098097
1810.938,0.076724
1812.5,0.044938
1814.063,0.044938
1815.625,0.044938
1817.188,0.052337
1818.75,0.103577
1820.313,0.118922
1821.875,0.129883
1823.438,0.0696
1825,0.092069
1826.563,0.065489
1828.125,0.070696
1829.688,0.08056
1831.25,0.259766
1832.813,0.237844
1834.375,0.073436
1835.938,0.096453
1837.5,0.088233
1839.063,0.063023
1840.625,0.068504
1842.188,0.071792
1843.75,0.050145
1845.313,0.08604
1846.875,0.249901
1848.438,0.320049
1850,0.14468
1851.563,0.15564
1853.125,0.124951
1854.688,0.051789
1856.25,0.074532
1857.813,0.126047
1859.375,0.146872
1860.938,0.113442
1862.5,0.087137
1864.063,0.067682
1865.625,0.049597
1867.188,0.093165
1868.75,0.126047
1870.313,0.16112
1871.875,0.442807
1873.438,1.131131
1875,1.017141
1876.563,0.282783
1878.125,0.115634
1879.688,0.051241
1881.25,0.057269
1882.813,0.082752
1884.375,0.088781
1885.938,0.080012
1887.5,0.073436
1889.063,0.094261
1890.625,0.083848
1892.188,0.0696
1893.75,0.063023
1895.313,0.070696
1896.875,0.070696
1898.438,0.101385
1900,0.143583
1901.563,0.102481
1903.125,0.055351
1904.688,0.039458
1906.25,0.054803
1907.813,0.051241
1909.375,0.068504
1910.938,0.082752
1912.5,0.08604
1914.063,0.073436
1915.625,0.090973
1917.188,0.126047
1918.75,0.096453
1920.313,0.068504
1921.875,0.111798
1923.438,0.07234
1925,0.068504
1926.563,0.141391
1928.125,0.130979
1929.688,0.135363
1931.25,0.482265
1932.813,1.008373
1934.375,0.644482
1935.938,0.184138
1937.5,0.076724
1939.063,0.058913
1940.625,0.055351
1942.188,0.052337
1943.75,0.047678
1945.313,0.057817
1946.875,0.226884
1948.438,0.377044
1950,0.207155
1951.563,0.103577
1953.125,0.063571
1954.688,0.062475
1956.25,0.056721
1957.813,0.056721
1959.375,0.044116
1960.938,0.051789
1962.5,0.083848
1964.063,0.092069
1965.625,0.149064
1967.188,0.261958
1968.75,0.179753
1970.313,0.064119
1971.875,0.033841
1973.438,0.030416
1975,0.035348
1976.563,0.026853
1978.125,0.055351
1979.688,0.056447
1981.25,0.049049
1982.813,0.060009
1984.375,0.04028
1985.938,0.04028
1987.5,0.048227
1989.063,0.053707
1990.625,0.034252
1992.188,0.018359
1993.75,0.027949
1995.313,0.026168
1996.875,0.04439
1998.438,0.033841
2000,0.03206
2001.563,0.033293
2003.125,0.035348
2004.688,0.030005
2006.25,0.033841
2007.813,0.046034
2009.375,0.044116
2010.938,0.047678
2012.5,0.055899
2014.063,0.071792
2015.625,0.060831
2017.188,0.058913
2018.75,0.03206
2020.313,0.046034
2021.875,0.088781
2023.438,0.082752
2025,0.066585
2026.563,0.060009
2028.125,0.101385
2029.688,0.172081
2031.25,0.099193
2032.813,0.035896
2034.375,0.0348
2035.938,0.054255
2037.5,0.08604
2039.063,0.060831
2040.625,0.027675
2042.188,0.03206
2043.75,0.047678
2045.313,0.07782
2046.875,0.071792
2048.438,0.034252
2050,0.026579
2051.563,0.020688
2053.125,0.016646
2054.688,0.018085
2056.25,0.026579
2057.813,0.033841
2059.375,0.0348
2060.938,0.037266
2062.5,0.04713
2064.063,0.061379
2065.625,0.054803
2067.188,0.026305
2068.75,0.01329
2070.313,0.02014
2071.875,0.025072
2073.438,0.028909
2075,0.026168
2076.563,0.029183
2078.125,0.030005
2079.688,0.026853
2081.25,0.028223
2082.813,0.022195
2084.375,0.027949
2085.938,0.033841
2087.5,0.023839
2089.063,0.022058
2090.625,0.020414
2092.188,0.018359
2093.75,0.017948
2095.313,0.027401
2096.875,0.044938
2098.438,0.028909
2100,0.021784
2101.563,0.028634
2103.125,0.023839
2104.688,0.014317
2106.25,0.020003
2107.813,0.026168
2109.375,0.029731
2110.938,0.032745
2112.5,0.045486
2114.063,0.020414
2115.625,0.018359
2117.188,0.027401
2118.75,0.031512
2120.313,0.020414
2121.875,0.024524
2123.438,0.034252
2125,0.053159
2126.563,0.075628
2128.125,0.045486
2129.688,0.024798
2131.25,0.015071
2132.813,0.018907
2134.375,0.016372
2135.938,0.01329
2137.5,0.015893
2139.063,0.016646
2140.625,0.020414
2142.188,0.027401
2143.75,0.020414
2145.313,0.013564
2146.875,0.014865
2148.438,0.018359
2150,0.022195
2151.563,0.017674
2153.125,0.011509
2154.688,0.020414
2156.25,0.026305
2157.813,0.022469
2159.375,0.022469
2160.938,0.019729
2162.5,0.024798
2164.063,0.023565
2165.625,0.022058
2167.188,0.019729
2168.75,0.022743
2170.313,0.041376
2171.875,0.041924
2173.438,0.03617
2175,0.027675
2176.563,0.025894
2178.125,0.021784
2179.688,0.014591
2181.25,0.011029
2182.813,0.017674
2184.375,0.028634
2185.938,0.052611
2187.5,0.042472
2189.063,0.018359
2190.625,0.013564
2192.188,0.023291
2193.75,0.025072
2195.313,0.015893
2196.875,0.016646
2198.438,0.023017
2200,0.018085
2201.563,0.02562
2203.125,0.023839
2204.688,0.019455
2206.25,0.015071
2207.813,0.016372
2209.375,0.015345
2210.938,0.019729
2212.5,0.020414
2214.063,0.014112
2215.625,0.014112
2217.188,0.02014
2218.75,0.022469
2220.313,0.015071
2221.875,0.03206
2223.438,0.040828
2225,0.022469
2226.563,0.014112
2228.125,0.012262
2229.688,0.014591
2231.25,0.010002
2232.813,0.013838
2234.375,0.020688
2235.938,0.017126
2237.5,0.012536
2239.063,0.015345
2240.625,0.013084
2242.188,0.011783
2243.75,0.030964
2245.313,0.054803
2246.875,0.036718
2248.438,0.013564
2250,0.010207
2251.563,0.01329
2253.125,0.01329
2254.688,0.014591
2256.25,0.015071
2257.813,0.020414
2259.375,0.049049
2260.938,0.071792
2262.5,0.0348
2264.063,0.018085
2265.625,0.02014
2267.188,0.025072
2268.75,0.017126
2270.313,0.011783
2271.875,0.013084
2273.438,0.012536
2275,0.009453
2276.563,0.011783
2278.125,0.013838
2279.688,0.017126
2281.25,0.015619
2282.813,0.01281
2284.375,0.012057
2285.938,0.015071
2287.5,0.016098
2289.063,0.014591
2290.625,0.011783
2292.188,0.010207
2293.75,0.009179
2295.313,0.007946
2296.875,0.011029
2298.438,0.013564
2300,0.014317
2301.563,0.009728
2303.125,0.011029
2304.688,0.02014
2306.25,0.014112
2307.813,0.018359
2309.375,0.024524
2310.938,0.020003
2312.5,0.020688
2314.063,0.02151
2315.625,0.013564
2317.188,0.025072
2318.75,0.071792
2320.313,0.07782
2321.875,0.027401
2323.438,0.0174
2325,0.012536
2326.563,0.012262
2328.125,0.010207
2329.688,0.010002
2331.25,0.014865
2332.813,0.033293
2334.375,0.073436
2335.938,0.064119
2337.5,0.023017
2339.063,0.010207
2340.625,0.011509
2342.188,0.013084
2343.75,0.013838
2345.313,0.018907
2346.875,0.015893
2348.438,0.012057
2350,0.013838
2351.563,0.010481
2353.125,0.012057
2354.688,0.01692
2356.25,0.010755
2357.813,0.015619
2359.375,0.013838
2360.938,0.015893
2362.5,0.011783
2364.063,0.012057
2365.625,0.010481
2367.188,0.008186
2368.75,0.010207
2370.313,0.011509
2371.875,0.014317
2373.438,0.013838
2375,0.014317
2376.563,0.013564
2378.125,0.014591
2379.688,0.011509
2381.25,0.007946
2382.813,0.016646
2384.375,0.01692
2385.938,0.016646
2387.5,0.017948
2389.063,0.014317
2390.625,0.013838
2392.188,0.012262
2393.75,0.01329
2395.313,0.013564
2396.875,0.023291
2398.438,0.030142
2400,0.02014
2401.563,0.020003
2403.125,0.016646
2404.688,0.014591
2406.25,0.022743
2407.813,0.049597
2409.375,0.056721
2410.938,0.027675
2412.5,0.01692
2414.063,0.011029
2415.625,0.019455
2417.188,0.020962
2418.75,0.0174
2420.313,0.011783
2421.875,0.022058
2423.438,0.074532
2425,0.093165
2426.563,0.045486
2428.125,0.028223
2429.688,0.01281
2431.25,0.014591
2432.813,0.011029
2434.375,0.01329
2435.938,0.016098
2437.5,0.014591
2439.063,0.015619
2440.625,0.015893
2442.188,0.018359
2443.75,0.009728
2445.313,0.014865
2446.875,0.019729
2448.438,0.017674
2450,0.022743
2451.563,0.015345
2453.125,0.01281
2454.688,0.012262
2456.25,0.010002
2457.813,0.011029
2459.375,0.010481
2460.938,0.01281
2462.5,0.014591
2464.063,0.015345
2465.625,0.015893
2467.188,0.0174
2468.75,0.013564
2470.313,0.030964
2471.875,0.071792
2473.438,0.073436
2475,0.029731
2476.563,0.018907
2478.125,0.01329
2479.688,0.012057
2481.25,0.008186
2482.813,0.027675
2484.375,0.032197
2485.938,0.028634
2487.5,0.024798
2489.063,0.012057
2490.625,0.011235
2492.188,0.013838
2493.75,0.01281
2495.313,0.038362
2496.875,0.10851
2498.438,0.223596
2500,0.157832
2501.563,0.052611
2503.125,0.0348
2504.688,0.03069
2506.25,0.021784
2507.813,0.013564
2509.375,0.013564
2510.938,0.013084
2512.5,0.016372
2514.063,0.017126
2515.625,0.01281
2517.188,0.011235
2518.75,0.009453
2520.313,0.010481
2521.875,0.0087
2523.438,0.025072
2525,0.037266
2526.563,0.020962
2528.125,0.016372
2529.688,0.012536
2531.25,0.009453
2532.813,0.008186
2534.375,0.007946
2535.938,0.007159
2537.5,0.006131
2539.063,0.008186
2540.625,0.00846
2542.188,0.00846
2543.75,0.009728
2545.313,0.007946
2546.875,0.011783
2548.438,0.011509
2550,0.016646
2551.563,0.015619
2553.125,0.009179
2554.688,0.010002
2556.25,0.009179
2557.813,0.011783
2559.375,0.009179
2560.938,0.011783
2562.5,0.01281
2564.063,0.009728
2565.625,0.007159
2567.188,0.008186
2568.75,0.007159
2570.313,0.006405
2571.875,0.008974
2573.438,0.011029
2575,0.007672
2576.563,0.009179
2578.125,0.008186
2579.688,0.0087
2581.25,0.0087
2582.813,0.007159
2584.375,0.005378
2585.938,0.006131
2587.5,0.007159
2589.063,0.011029
2590.625,0.007946
2592.188,0.007159
2593.75,0.008974
2595.313,0.011235
2596.875,0.0087
2598.438,0.007672
2600,0.006131
2601.563,0.007672
2603.125,0.009728
2604.688,0.007159
2606.25,0.004864
2607.813,0.014112
2609.375,0.027127
2610.938,0.018633
2612.5,0.006919
2614.063,0.004864
2615.625,0.004864
2617.188,0.006645
2618.75,0.006645
2620.313,0.010481
2621.875,0.011235
2623.438,0.010002
2625,0.016098
2626.563,0.012262
2628.125,0.00846
2629.688,0.006131
2631.25,0.006405
2632.813,0.006645
2634.375,0.0087
2635.938,0.011029
2637.5,0.009179
2639.063,0.007672
2640.625,0.008186
2642.188,0.011029
2643.75,0.007159
2645.313,0.011029
2646.875,0.020688
2648.438,0.014317
2650,0.011029
2651.563,0.012536
2653.125,0.012262
2654.688,0.012536
2656.25,0.00846
2657.813,0.008186
2659.375,0.006919
2660.938,0.006131
2662.5,0.009453
2664.063,0.006645
2665.625,0.005617
2667.188,0.005617
2668.75,0.004093
2670.313,0.005617
2671.875,0.008186
2673.438,0.008186
2675,0.005617
2676.563,0.005891
2678.125,0.00459
2679.688,0.005378
2681.25,0.005378
2682.813,0.007946
2684.375,0.00846
2685.938,0.005891
2687.5,0.006919
2689.063,0.009179
2690.625,0.010002
2692.188,0.007672
2693.75,0.005617
2695.313,0.011235
2696.875,0.011783
2698.438,0.01329
2700,0.012536
2701.563,0.008974
2703.125,0.005104
2704.688,0.014112
2706.25,0.027675
2707.813,0.022058
2709.375,0.011029
2710.938,0.015619
2712.5,0.009453
2714.063,0.013564
2715.625,0.014112
2717.188,0.0087
2718.75,0.013084
2720.313,0.028634
2721.875,0.036718
2723.438,0.022743
2725,0.011029
2726.563,0.006645
2728.125,0.008974
2729.688,0.011235
2731.25,0.0087
2732.813,0.0087
2734.375,0.012536
2735.938,0.03069
2737.5,0.037266
2739.063,0.0174
2740.625,0.009179
2742.188,0.010002
2743.75,0.011235
2745.313,0.007946
2746.875,0.010207
2748.438,0.007433
2750,0.007672
2751.563,0.014317
2753.125,0.011509
2754.688,0.008974
2756.25,0.010755
2757.813,0.020414
2759.375,0.024113
2760.938,0.01281
2762.5,0.012057
2764.063,0.009453
2765.625,0.004864
2767.188,0.006131
2768.75,0.008186
2770.313,0.009453
2771.875,0.010481
2773.438,0.008186
2775,0.011029
2776.563,0.012262
2778.125,0.010207
2779.688,0.010755
2781.25,0.017126
2782.813,0.03891
2784.375,0.082752
2785.938,0.08056
2787.5,0.028223
2789.063,0.016098
2790.625,0.014317
2792.188,0.016372
2793.75,0.015893
2795.313,0.029183
2796.875,0.026168
2798.438,0.023565
2800,0.019181
2801.563,0.024524
2803.125,0.028634
2804.688,0.022058
2806.25,0.026168
2807.813,0.050145
2809.375,0.139199
2810.938,0.254285
2812.5,0.165505
2814.063,0.057817
2815.625,0.027401
2817.188,0.018633
2818.75,0.015345
2820.313,0.011783
2821.875,0.014591
2823.438,0.0174
2825,0.021236
2826.563,0.017126
2828.125,0.011783
2829.688,0.009728
2831.25,0.009728
2832.813,0.009453
2834.375,0.012262
2835.938,0.034252
2837.5,0.04713
2839.063,0.023291
2840.625,0.013564
2842.188,0.010002
2843.75,0.00846
2845.313,0.00846
2846.875,0.00846
2848.438,0.008974
2850,0.015345
2851.563,0.016098
2853.125,0.007433
2854.688,0.008186
2856.25,0.009453
2857.813,0.010207
2859.375,0.009179
2860.938,0.009179
2862.5,0.021236
2864.063,0.019729
2865.625,0.008186
2867.188,0.007946
2868.75,0.011029
2870.313,0.015893
2871.875,0.011509
2873.438,0.010481
2875,0.008974
2876.563,0.007672
2878.125,0.007159
2879.688,0.007159
2881.25,0.0087
2882.813,0.011235
2884.375,0.017674
2885.938,0.023291
2887.5,0.023565
2889.063,0.042472
2890.625,0.056721
2892.188,0.030416
2893.75,0.012057
2895.313,0.008186
2896.875,0.010207
2898.438,0.012057
2900,0.01281
2901.563,0.0087
2903.125,0.005891
2904.688,0.005617
2906.25,0.008974
2907.813,0.009728
2909.375,0.004093
2910.938,0.009453
2912.5,0.010002
2914.063,0.007433
2915.625,0.006405
2917.188,0.007159
2918.75,0.007159
2920.313,0.005891
2921.875,0.006405
2923.438,0.008186
2925,0.006919
2926.563,0.006919
2928.125,0.008186
2929.688,0.012262
2931.25,0.014865
2932.813,0.008974
2934.375,0.005378
2935.938,0.005891
2937.5,0.011029
2939.063,0.009179
2940.625,0.005378
2942.188,0.006405
2943.75,0.009453
2945.313,0.009179
2946.875,0.009453
2948.438,0.010002
2950,0.008974
2951.563,0.005617
2953.125,0.005617
2954.688,0.006131
2956.25,0.006131
2957.813,0.007433
2959.375,0.010755
2960.938,0.009453
2962.5,0.00846
2964.063,0.007672
2965.625,0.007946
2967.188,0.00846
2968.75,0.007433
2970.313,0.007159
2971.875,0.005104
2973.438,0.007433
2975,0.011783
2976.563,0.007433
2978.125,0.004864
2979.688,0.007159
2981.25,0.007433
2982.813,0.010207
2984.375,0.01692
2985.938,0.020003
2987.5,0.011783
2989.063,0.007946
2990.625,0.005378
2992.188,0.006645
2993.75,0.010207
2995.313,0.013084
2996.875,0.012057
2998.438,0.005104
3000,0.005617
3001.563,0.00459
3003.125,0.004093
3004.688,0.00459
3006.25,0.008974
3007.813,0.010755
3009.375,0.01692
3010.938,0.0348
3012.5,0.029731
3014.063,0.007946
3015.625,0.005104
3017.188,0.005891
3018.75,0.005378
3020.313,0.00459
3021.875,0.005891
3023.438,0.005617
3025,0.007159
3026.563,0.007946
3028.125,0.004864
3029.688,0.003322
3031.25,0.006131
3032.813,0.012536
3034.375,0.013084
3035.938,0.007946
3037.5,0.007672
3039.063,0.005891
3040.625,0.006645
3042.188,0.00846
3043.75,0.007672
3045.313,0.006919
3046.875,0.007672
3048.438,0.0087
3050,0.007433
3051.563,0.004864
3053.125,0.005378
3054.688,0.007946
3056.25,0.005378
3057.813,0.005104
3059.375,0.009179
3060.938,0.013838
3062.5,0.010207
3064.063,0.004864
3065.625,0.006131
3067.188,0.005617
3068.75,0.003836
3070.313,0.006645
3071.875,0.007672
3073.438,0.005378
3075,0.007433
3076.563,0.008186
3078.125,0.006405
3079.688,0.004864
3081.25,0.007672
3082.813,0.008186
3084.375,0.005617
3085.938,0.006405
3087.5,0.006131
3089.063,0.008186
3090.625,0.014865
3092.188,0.023565
3093.75,0.020688
3095.313,0.014591
3096.875,0.026579
3098.438,0.023017
3100,0.011783
3101.563,0.013084
3103.125,0.009728
3104.688,0.012262
3106.25,0.0348
3107.813,0.060283
3109.375,0.043568
3110.938,0.017126
3112.5,0.012536
3114.063,0.012262
3115.625,0.010481
3117.188,0.006645
3118.75,0.010755
3120.313,0.02151
3121.875,0.054255
3123.438,0.090973
3125,0.057817
3126.563,0.022743
3128.125,0.014865
3129.688,0.010207
3131.25,0.0087
3132.813,0.014112
3134.375,0.018907
3135.938,0.014591
3137.5,0.014112
3139.063,0.006645
3140.625,0.007159
3142.188,0.009179
3143.75,0.005891
3145.313,0.006645
3146.875,0.012536
3148.438,0.026579
3150,0.030142
3151.563,0.015619
3153.125,0.006919
3154.688,0.005617
3156.25,0.007159
3157.813,0.007159
3159.375,0.006645
3160.938,0.004864
3162.5,0.004093
3164.063,0.006131
3165.625,0.007946
3167.188,0.009728
3168.75,0.007672
3170.313,0.008186
3171.875,0.009453
3173.438,0.015345
3175,0.018359
3176.563,0.010207
3178.125,0.006645
3179.688,0.007946
3181.25,0.014112
3182.813,0.0174
3184.375,0.009179
3185.938,0.014112
3187.5,0.018359
3189.063,0.019729
3190.625,0.014865
3192.188,0.006645
3193.75,0.003322
3195.313,0.007672
3196.875,0.018085
3198.438,0.020003
3200,0.009453
3201.563,0.010002
3203.125,0.017126
3204.688,0.026579
3206.25,0.016098
3207.813,0.006131
3209.375,0.00459
3210.938,0.003836
3212.5,0.006405
3214.063,0.00846
3215.625,0.008974
3217.188,0.009453
3218.75,0.009453
3220.313,0.008186
3221.875,0.006405
3223.438,0.008186
3225,0.006919
3226.563,0.006405
3228.125,0.009179
3229.688,0.0087
3231.25,0.006405
3232.813,0.007433
3234.375,0.007433
3235.938,0.005891
3237.5,0.007159
3239.063,0.002809
3240.625,0.005617
3242.188,0.007433
3243.75,0.005378
3245.313,0.003579
3246.875,0.004093
3248.438,0.006645
3250,0.007159
3251.563,0.006131
3253.125,0.006919
3254.688,0.009179
3256.25,0.011783
3257.813,0.008974
3259.375,0.00846
3260.938,0.0087
3262.5,0.006405
3264.063,0.004864
3265.625,0.005891
3267.188,0.006131
3268.75,0.00459
3270.313,0.003579
3271.875,0.005104
3273.438,0.003836
3275,0.00435
3276.563,0.009453
3278.125,0.010755
3279.688,0.006919
3281.25,0.006131
3282.813,0.006645
3284.375,0.007159
3285.938,0.009179
3287.5,0.009453
3289.063,0.006405
3290.625,0.004864
3292.188,0.005617
3293.75,0.005378
3295.313,0.006645
3296.875,0.007672
3298.438,0.007946
3300,0.006919
3301.563,0.005378
3303.125,0.003836
3304.688,0.006405
3306.25,0.002809
3307.813,0.00435
3309.375,0.006131
3310.938,0.006919
3312.5,0.006919
3314.063,0.005891
3315.625,0.005378
3317.188,0.005104
3318.75,0.005104
3320.313,0.005891
3321.875,0.005617
3323.438,0.007946
3325,0.005104
3326.563,0.004864
3328.125,0.00435
3329.688,0.007433
3331.25,0.010207
3332.813,0.009179
3334.375,0.007159
3335.938,0.007159
3337.5,0.005378
3339.063,0.004093
3340.625,0.00459
3342.188,0.005891
3343.75,0.011235
3345.313,0.02014
3346.875,0.019729
3348.438,0.011783
3350,0.00846
3351.563,0.005617
3353.125,0.006131
3354.688,0.005378
3356.25,0.006131
3357.813,0.005617
3359.375,0.006405
3360.938,0.012262
3362.5,0.012536
3364.063,0.005617
3365.625,0.00435
3367.188,0.005617
3368.75,0.007672
3370.313,0.014591
3371.875,0.027401
3373.438,0.019455
3375,0.007672
3376.563,0.005617
3378.125,0.006131
3379.688,0.00459
3381.25,0.005617
3382.813,0.007672
3384.375,0.005378
3385.938,0.006919
3387.5,0.005378
3389.063,0.00459
3390.625,0.004093
3392.188,0.005104
3393.75,0.00846
3395.313,0.007433
3396.875,0.00846
3398.438,0.011235
3400,0.006405
3401.563,0.005617
3403.125,0.00846
3404.688,0.006131
3406.25,0.007159
3407.813,0.011235
3409.375,0.0174
3410.938,0.015071
3412.5,0.00846
3414.063,0.007946
3415.625,0.0087
3417.188,0.0087
3418.75,0.011235
3420.313,0.016372
3421.875,0.013084
3423.438,0.009179
3425,0.006919
3426.563,0.007946
3428.125,0.007946
3429.688,0.00435
3431.25,0.005104
3432.813,0.013564
3434.375,0.026853
3435.938,0.03617
3437.5,0.020962
3439.063,0.009453
3440.625,0.005617
3442.188,0.005104
3443.75,0.00435
3445.313,0.006919
3446.875,0.009728
3448.438,0.007159
3450,0.007159
3451.563,0.006405
3453.125,0.005891
3454.688,0.00459
3456.25,0.005891
3457.813,0.007433
3459.375,0.007672
3460.938,0.009453
3462.5,0.010207
3464.063,0.009179
3465.625,0.009453
3467.188,0.016372
3468.75,0.011509
3470.313,0.00846
3471.875,0.006919
3473.438,0.006919
3475,0.005378
3476.563,0.013084
3478.125,0.027401
3479.688,0.036718
3481.25,0.021236
3482.813,0.01329
3484.375,0.012057
3485.938,0.007159
3487.5,0.0087
3489.063,0.006919
3490.625,0.006919
3492.188,0.01692
3493.75,0.035348
3495.313,0.039458
3496.875,0.017674
3498.438,0.008186
3500,0.005378
3501.563,0.005891
3503.125,0.005891
3504.688,0.005378
3506.25,0.006645
3507.813,0.014317
3509.375,0.027949
3510.938,0.028223
3512.5,0.013084
3514.063,0.007433
3515.625,0.007433
3517.188,0.009453
3518.75,0.006131
3520.313,0.007672
3521.875,0.006919
3523.438,0.005891
3525,0.004864
3526.563,0.003836
3528.125,0.005378
3529.688,0.0087
3531.25,0.006405
3532.813,0.00459
3534.375,0.005378
3535.938,0.010207
3537.5,0.007672
3539.063,0.00435
3540.625,0.004864
3542.188,0.00459
3543.75,0.004864
3545.313,0.003836
3546.875,0.003066
3548.438,0.003836
3550,0.003836
3551.563,0.003579
3553.125,0.005104
3554.688,0.005891
3556.25,0.005104
3557.813,0.005378
3559.375,0.006131
3560.938,0.006919
3562.5,0.006645
3564.063,0.003066
3565.625,0.005378
3567.188,0.010481
3568.75,0.015619
3570.313,0.011509
3571.875,0.007672
3573.438,0.007946
3575,0.007433
3576.563,0.006919
3578.125,0.005378
3579.688,0.004864
3581.25,0.003579
3582.813,0.005104
3584.375,0.007159
3585.938,0.005617
3587.5,0.006919
3589.063,0.004864
3590.625,0.006131
3592.188,0.00435
3593.75,0.004093
3595.313,0.004093
3596.875,0.003322
3598.438,0.004864
3600,0.005104
3601.563,0.002809
3603.125,0.004093
3604.688,0.004864
3606.25,0.006645
3607.813,0.005104
3609.375,0.00459
3610.938,0.00435
3612.5,0.005104
3614.063,0.003836
3615.625,0.003322
3617.188,0.00435
3618.75,0.004864
3620.313,0.00435
3621.875,0.004093
3623.438,0.00435
3625,0.004864
3626.563,0.004093
3628.125,0.00459
3629.688,0.004093
3631.25,0.00459
3632.813,0.00459
3634.375,0.003836
3635.938,0.006405
3637.5,0.006919
3639.063,0.00459
3640.625,0.004093
3642.188,0.00435
3643.75,0.004864
3645.313,0.004864
3646.875,0.005104
3648.438,0.006131
3650,0.005617
3651.563,0.005104
3653.125,0.00459
3654.688,0.004093
3656.25,0.004093
3657.813,0.005104
3659.375,0.005378
3660.938,0.005617
3662.5,0.006131
3664.063,0.00459
3665.625,0.00459
3667.188,0.00435
3668.75,0.004093
3670.313,0.00459
3671.875,0.00459
3673.438,0.00435
3675,0.005104
3676.563,0.00435
3678.125,0.003066
3679.688,0.004093
3681.25,0.003836
3682.813,0.003322
3684.375,0.003066
3685.938,0.002809
3687.5,0.005378
3689.063,0.005104
3690.625,0.002295
3692.188,0.003066
3693.75,0.003836
3695.313,0.003836
3696.875,0.003579
3698.438,0.003066
3700,0.00179
3701.563,0.003322
3703.125,0.004864
3704.688,0.004864
3706.25,0.00435
3707.813,0.002295
3709.375,0.003322
3710.938,0.003579
3712.5,0.002552
3714.063,0.002047
3715.625,0.003579
3717.188,0.005891
3718.75,0.005104
3720.313,0.004864
3721.875,0.003579
3723.438,0.003322
3725,0.003322
3726.563,0.003322
3728.125,0.002552
3729.688,0.002552
3731.25,0.003579
3732.813,0.005378
3734.375,0.004864
3735.938,0.00459
3737.5,0.00435
3739.063,0.002809
3740.625,0.002295
3742.188,0.003066
3743.75,0.003579
3745.313,0.003836
3746.875,0.005378
3748.438,0.006919
3750,0.00459
3751.563,0.002295
3753.125,0.003066
3754.688,0.003579
3756.25,0.004864
3757.813,0.006919
3759.375,0.007433
3760.938,0.005617
3762.5,0.005617
3764.063,0.004093
3765.625,0.003579
3767.188,0.002552
3768.75,0.003066
3770.313,0.003066
3771.875,0.003066
3773.438,0.003836
3775,0.00459
3776.563,0.003579
3778.125,0.002809
3779.688,0.003066
3781.25,0.003066
3782.813,0.003066
3784.375,0.00435
3785.938,0.004093
3787.5,0.002552
3789.063,0.003066
3790.625,0.002809
3792.188,0.002552
3793.75,0.002809
3795.313,0.002295
3796.875,0.003322
3798.438,0.002809
3800,0.004864
3801.563,0.003066
3803.125,0.003836
3804.688,0.006919
3806.25,0.01329
3807.813,0.012536
3809.375,0.006131
3810.938,0.003836
3812.5,0.003579
3814.063,0.003579
3815.625,0.003322
3817.188,0.003066
3818.75,0.002809
3820.313,0.003066
3821.875,0.004864
3823.438,0.003066
3825,0.003066
3826.563,0.002809
3828.125,0.003322
3829.688,0.002295
3831.25,0.002552
3832.813,0.002552
3834.375,0.003322
3835.938,0.003579
3837.5,0.003836
3839.063,0.004864
3840.625,0.005378
3842.188,0.00435
3843.75,0.002809
3845.313,0.003322
3846.875,0.003836
3848.438,0.002809
3850,0.00435
3851.563,0.007946
3853.125,0.015619
3854.688,0.01692
3856.25,0.007672
3857.813,0.003579
3859.375,0.003322
3860.938,0.003322
3862.5,0.003322
3864.063,0.008186
3865.625,0.013564
3867.188,0.011235
3868.75,0.006405
3870.313,0.005104
3871.875,0.003066
3873.438,0.002047
3875,0.00179
3876.563,0.003066
3878.125,0.006131
3879.688,0.012536
3881.25,0.018907
3882.813,0.013564
3884.375,0.006645
3885.938,0.003836
3887.5,0.00435
3889.063,0.003579
3890.625,0.004093
3892.188,0.002552
3893.75,0.006645
3895.313,0.005891
3896.875,0.008974
3898.438,0.006131
3900,0.004093
3901.563,0.003836
3903.125,0.002552
3904.688,0.003579
3906.25,0.004864
3907.813,0.005378
3909.375,0.005104
3910.938,0.003579
3912.5,0.002295
3914.063,0.003066
3915.625,0.003066
3917.188,0.00459
3918.75,0.005104
3920.313,0.003836
3921.875,0.003066
3923.438,0.002552
3925,0.003579
3926.563,0.001276
3928.125,0.002552
3929.688,0.002552
3931.25,0.002552
3932.813,0.003066
3934.375,0.003322
3935.938,0.00459
3937.5,0.00459
3939.063,0.002809
3940.625,0.003066
3942.188,0.002809
3943.75,0.002809
3945.313,0.003066
3946.875,0.007946
3948.438,0.01329
3950,0.011235
3951.563,0.007159
3953.125,0.005104
3954.688,0.00459
3956.25,0.005617
3957.813,0.005378
3959.375,0.005104
3960.938,0.005891
3962.5,0.00459
3964.063,0.00459
3965.625,0.003836
3967.188,0.003066
3968.75,0.003579
3970.313,0.006645
3971.875,0.006131
3973.438,0.00459
3975,0.00435
3976.563,0.003579
3978.125,0.00435
3979.688,0.004093
3981.25,0.003322
3982.813,0.002809
3984.375,0.00459
3985.938,0.003579
3987.5,0.002809
3989.063,0.00435
3990.625,0.003322
3992.188,0.002295
3993.75,0.00179
3995.313,0.002552
3996.875,0.004093
3998.438,0.003579
4000,0.00435
4001.563,0.003579
4003.125,0.003836
4004.688,0.003322
4006.25,0.002809
4007.813,0.003579
4009.375,0.003579
4010.938,0.003322
4012.5,0.002047
4014.063,0.002047
4015.625,0.003066
4017.188,0.002047
4018.75,0.001533
4020.313,0.003066
4021.875,0.003836
4023.438,0.002809
4025,0.002295
4026.563,0.003322
4028.125,0.002809
4029.688,0.002552
4031.25,0.003066
4032.813,0.006131
4034.375,0.00846
4035.938,0.005617
4037.5,0.003579
4039.063,0.002809
4040.625,0.003579
4042.188,0.00435
4043.75,0.006405
4045.313,0.006405
4046.875,0.004864
4048.438,0.00459
4050,0.00459
4051.563,0.00435
4053.125,0.003836
4054.688,0.003066
4056.25,0.003066
4057.813,0.005378
4059.375,0.0087
4060.938,0.010755
4062.5,0.006645
4064.063,0.003066
4065.625,0.003322
4067.188,0.003322
4068.75,0.002809
4070.313,0.002809
4071.875,0.003066
4073.438,0.003836
4075,0.003066
4076.563,0.002809
4078.125,0.00179
4079.688,0.002047
4081.25,0.002552
4082.813,0.002809
4084.375,0.002809
4085.938,0.005104
4087.5,0.004864
4089.063,0.003066
4090.625,0.00179
4092.188,0.002552
4093.75,0.00179
4095.313,0.002552
4096.875,0.00179
4098.438,0.002295
4100,0.002047
4101.563,0.00179
4103.125,0.002552
4104.688,0.003322
4106.25,0.002295
4107.813,0.002552
4109.375,0.003579
4110.938,0.002552
4112.5,0.002809
4114.063,0.002552
4115.625,0.003836
4117.188,0.002552
4118.75,0.002295
4120.313,0.002809
4121.875,0.002552
4123.438,0.003066
4125,0.003322
4126.563,0.003066
4128.125,0.002295
4129.688,0.002047
4131.25,0.002552
4132.813,0.004093
4134.375,0.00459
4135.938,0.003579
4137.5,0.002809
4139.063,0.002809
4140.625,0.003066
4142.188,0.003066
4143.75,0.003066
4145.313,0.003836
4146.875,0.003579
4148.438,0.002552
4150,0.002552
4151.563,0.003322
4153.125,0.003322
4154.688,0.003836
4156.25,0.003322
4157.813,0.002295
4159.375,0.003066
4160.938,0.003579
4162.5,0.003066
4164.063,0.002552
4165.625,0.003322
4167.188,0.003066
4168.75,0.003066
4170.313,0.00459
4171.875,0.005617
4173.438,0.003322
4175,0.002552
4176.563,0.002047
4178.125,0.00179
4179.688,0.00179
4181.25,0.002552
4182.813,0.002552
4184.375,0.002295
4185.938,0.003322
4187.5,0.003836
4189.063,0.004093
4190.625,0.002809
4192.188,0.005104
4193.75,0.007159
4195.313,0.00459
4196.875,0.004864
4198.438,0.002809
4200,0.00179
4201.563,0.002552
4203.125,0.002295
4204.688,0.003322
4206.25,0.003322
4207.813,0.003836
4209.375,0.00435
4210.938,0.002552
4212.5,0.003322
4214.063,0.003322
4215.625,0.002809
4217.188,0.002047
4218.75,0.002295
4220.313,0.003066
4221.875,0.003066
4223.438,0.002295
4225,0.002809
4226.563,0.002047
4228.125,0.002552
4229.688,0.002552
4231.25,0.00179
4232.813,0.002809
4234.375,0.002809
4235.938,0.003322
4237.5,0.004093
4239.063,0.006405
4240.625,0.008974
4242.188,0.005891
4243.75,0.003066
4245.313,0.004093
4246.875,0.004864
4248.438,0.003322
4250,0.003066
4251.563,0.002295
4253.125,0.003579
4254.688,0.00435
4256.25,0.005104
4257.813,0.00435
4259.375,0.003322
4260.938,0.002552
4262.5,0.002047
4264.063,0.002552
4265.625,0.006645
4267.188,0.010755
4268.75,0.0087
4270.313,0.005104
4271.875,0.00459
4273.438,0.00435
4275,0.003579
4276.563,0.002295
4278.125,0.002295
4279.688,0.003066
4281.25,0.006405
4282.813,0.008186
4284.375,0.006645
4285.938,0.003836
4287.5,0.003836
4289.063,0.002295
4290.625,0.00179
4292.188,0.003322
4293.75,0.004093
4295.313,0.00435
4296.875,0.005891
4298.438,0.00846
4300,0.006131
4301.563,0.003836
4303.125,0.003322
4304.688,0.002809
4306.25,0.003322
4307.813,0.003579
4309.375,0.003322
4310.938,0.003322
4312.5,0.002295
4314.063,0.002552
4315.625,0.002809
4317.188,0.002809
4318.75,0.002809
4320.313,0.002295
4321.875,0.003066
4323.438,0.00459
4325,0.005617
4326.563,0.004093
4328.125,0.002047
4329.688,0.003066
4331.25,0.003322
4332.813,0.006405
4334.375,0.009179
4335.938,0.012057
4337.5,0.0087
4339.063,0.005617
4340.625,0.00435
4342.188,0.003579
4343.75,0.003836
4345.313,0.005891
4346.875,0.008974
4348.438,0.011235
4350,0.009179
4351.563,0.006919
4353.125,0.00435
4354.688,0.003836
4356.25,0.006131
4357.813,0.005104
4359.375,0.003579
4360.938,0.003579
4362.5,0.003836
4364.063,0.003836
4365.625,0.003836
4367.188,0.003579
4368.75,0.003066
4370.313,0.005104
4371.875,0.008186
4373.438,0.010755
4375,0.006645
4376.563,0.003836
4378.125,0.003066
4379.688,0.00435
4381.25,0.004093
4382.813,0.004093
4384.375,0.003836
4385.938,0.003066
4387.5,0.003066
4389.063,0.003066
4390.625,0.003322
4392.188,0.002809
4393.75,0.002552
4395.313,0.004093
4396.875,0.00435
4398.438,0.00459
4400,0.003579
4401.563,0.004093
4403.125,0.00459
4404.688,0.003579
4406.25,0.002809
4407.813,0.003322
4409.375,0.003066
4410.938,0.002809
4412.5,0.002809
4414.063,0.002809
4415.625,0.002295
4417.188,0.002809
4418.75,0.005104
4420.313,0.005617
4421.875,0.006405
4423.438,0.007672
4425,0.006131
4426.563,0.003322
4428.125,0.003836
4429.688,0.007159
4431.25,0.011029
4432.813,0.00846
4434.375,0.004093
4435.938,0.003836
4437.5,0.005617
4439.063,0.00459
4440.625,0.002809
4442.188,0.004093
4443.75,0.005617
4445.313,0.007946
4446.875,0.010755
4448.438,0.008974
4450,0.006645
4451.563,0.00459
4453.125,0.004093
4454.688,0.00435
4456.25,0.003066
4457.813,0.004093
4459.375,0.003579
4460.938,0.002809
4462.5,0.003579
4464.063,0.00459
4465.625,0.003836
4467.188,0.002295
4468.75,0.003066
4470.313,0.003836
4471.875,0.005617
4473.438,0.005104
4475,0.00459
4476.563,0.002809
4478.125,0.003322
4479.688,0.003066
4481.25,0.003836
4482.813,0.003579
4484.375,0.003322
4485.938,0.002552
4487.5,0.002295
4489.063,0.002552
4490.625,0.003579
4492.188,0.002809
4493.75,0.002552
4495.313,0.00435
4496.875,0.004864
4498.438,0.002809
4500,0.004093
4501.563,0.003579
4503.125,0.002552
4504.688,0.002295
4506.25,0.003836
4507.813,0.003066
4509.375,0.003836
4510.938,0.003579
4512.5,0.003322
4514.063,0.002295
4515.625,0.002552
4517.188,0.002809
4518.75,0.002809
4520.313,0.004093
4521.875,0.00435
4523.438,0.003579
4525,0.004093
4526.563,0.003836
4528.125,0.002047
4529.688,0.002552
4531.25,0.004093
4532.813,0.003322
4534.375,0.003066
4535.938,0.004093
4537.5,0.003836
4539.063,0.002809
4540.625,0.004093
4542.188,0.005617
4543.75,0.00435
4545.313,0.004093
4546.875,0.00459
4548.438,0.003836
4550,0.003322
4551.563,0.003579
4553.125,0.004093
4554.688,0.005891
4556.25,0.009179
4557.813,0.010755
4559.375,0.008186
4560.938,0.004864
4562.5,0.00179
4564.063,0.002295
4565.625,0.002047
4567.188,0.002809
4568.75,0.00459
4570.313,0.006919
4571.875,0.008974
4573.438,0.011783
4575,0.008186
4576.563,0.003579
4578.125,0.003579
4579.688,0.00435
4581.25,0.00459
4582.813,0.004864
4584.375,0.003836
4585.938,0.003066
4587.5,0.003322
4589.063,0.003836
4590.625,0.00459
4592.188,0.003579
4593.75,0.004864
4595.313,0.006919
4596.875,0.005617
4598.438,0.005104
4600,0.005378
4601.563,0.003322
4603.125,0.002809
4604.688,0.003066
4606.25,0.006131
4607.813,0.005104
4609.375,0.00459
4610.938,0.004093
4612.5,0.003066
4614.063,0.004093
4615.625,0.003836
4617.188,0.003066
4618.75,0.003836
4620.313,0.003836
4621.875,0.004864
4623.438,0.006131
4625,0.005617
4626.563,0.003066
4628.125,0.003579
4629.688,0.002809
4631.25,0.003579
4632.813,0.005104
4634.375,0.005617
4635.938,0.005104
4637.5,0.004093
4639.063,0.005617
4640.625,0.005104
4642.188,0.005378
4643.75,0.007159
4645.313,0.004864
4646.875,0.00435
4648.438,0.004864
4650,0.00435
4651.563,0.005617
4653.125,0.0087
4654.688,0.010002
4656.25,0.008186
4657.813,0.0087
4659.375,0.005617
4660.938,0.005378
4662.5,0.005617
4664.063,0.005378
4665.625,0.00435
4667.188,0.010755
4668.75,0.019455
4670.313,0.019455
4671.875,0.012262
4673.438,0.007946
4675,0.005617
4676.563,0.004864
4678.125,0.00435
4679.688,0.005104
4681.25,0.005104
4682.813,0.00846
4684.375,0.012057
4685.938,0.012057
4687.5,0.007672
4689.063,0.004093
4690.625,0.004093
4692.188,0.003836
4693.75,0.005891
4695.313,0.006645
4696.875,0.005891
4698.438,0.006645
4700,0.00459
4701.563,0.003322
4703.125,0.00435
4704.688,0.00435
4706.25,0.004093
4707.813,0.00459
4709.375,0.004864
4710.938,0.005378
4712.5,0.005378
4714.063,0.00435
4715.625,0.00459
4717.188,0.005617
4718.75,0.006131
4720.313,0.007159
4721.875,0.005617
4723.438,0.003066
4725,0.003579
4726.563,0.005104
4728.125,0.006405
4729.688,0.005378
4731.25,0.007672
4732.813,0.008186
4734.375,0.008186
4735.938,0.007946
4737.5,0.005617
4739.063,0.003836
4740.625,0.003322
4742.188,0.006645
4743.75,0.010755
4745.313,0.009453
4746.875,0.007159
4748.438,0.0087
4750,0.010207
4751.563,0.009179
4753.125,0.006131
4754.688,0.003322
4756.25,0.005104
4757.813,0.010207
4759.375,0.013084
4760.938,0.010481
4762.5,0.006645
4764.063,0.003579
4765.625,0.006405
4767.188,0.007946
4768.75,0.004864
4770.313,0.00459
4771.875,0.00435
4773.438,0.003579
4775,0.003579
4776.563,0.005378
4778.125,0.005378
4779.688,0.00459
4781.25,0.005104
4782.813,0.004093
4784.375,0.005891
4785.938,0.006645
4787.5,0.003836
4789.063,0.003579
4790.625,0.003066
4792.188,0.003322
4793.75,0.003836
4795.313,0.003322
4796.875,0.002552
4798.438,0.003322
4800,0.003836
4801.563,0.003322
4803.125,0.003579
4804.688,0.005104
4806.25,0.00459
4807.813,0.002809
4809.375,0.002809
4810.938,0.00459
4812.5,0.005378
4814.063,0.004864
4815.625,0.004864
4817.188,0.006919
4818.75,0.006131
4820.313,0.006131
4821.875,0.005104
4823.438,0.004093
4825,0.002552
4826.563,0.002295
4828.125,0.003579
4829.688,0.00435
4831.25,0.004093
4832.813,0.004093
4834.375,0.003579
4835.938,0.003579
4837.5,0.003579
4839.063,0.003322
4840.625,0.003579
4842.188,0.003066
4843.75,0.00435
4845.313,0.003322
4846.875,0.003066
4848.438,0.003322
4850,0.003066
4851.563,0.003322
4853.125,0.003836
4854.688,0.003066
4856.25,0.003579
4857.813,0.004093
4859.375,0.003579
4860.938,0.003579
4862.5,0.003066
4864.063,0.003322
4865.625,0.003066
4867.188,0.002552
4868.75,0.002552
4870.313,0.003579
4871.875,0.003836
4873.438,0.003579
4875,0.003322
4876.563,0.003066
4878.125,0.002047
4879.688,0.002047
4881.25,0.003322
4882.813,0.004093
4884.375,0.004093
4885.938,0.003836
4887.5,0.003322
4889.063,0.002047
4890.625,0.00459
4892.188,0.00459
4893.75,0.004864
4895.313,0.005378
4896.875,0.003836
4898.438,0.003579
4900,0.003322
4901.563,0.002809
4903.125,0.002552
4904.688,0.002552
4906.25,0.005104
4907.813,0.005104
4909.375,0.00435
4910.938,0.004093
4912.5,0.002809
4914.063,0.002295
4915.625,0.002552
4917.188,0.003322
4918.75,0.004093
4920.313,0.003066
4921.875,0.002809
4923.438,0.002809
4925,0.002552
4926.563,0.002295
4928.125,0.002552
4929.688,0.002047
4931.25,0.001533
4932.813,0.003322
4934.375,0.003579
4935.938,0.003322
4937.5,0.002809
4939.063,0.002552
4940.625,0.003322
4942.188,0.003066
4943.75,0.005617
4945.313,0.005891
4946.875,0.003579
4948.438,0.002295
4950,0.002295
4951.563,0.002552
4953.125,0.001533
4954.688,0.003322
4956.25,0.005617
4957.813,0.003579
4959.375,0.002809
4960.938,0.002295
4962.5,0.002047
4964.063,0.003322
4965.625,0.005378
4967.188,0.006131
4968.75,0.00435
4970.313,0.00435
4971.875,0.003322
4973.438,0.003579
4975,0.003579
4976.563,0.003322
4978.125,0.00435
4979.688,0.008186
4981.25,0.010481
4982.813,0.009179
4984.375,0.006645
4985.938,0.005104
4987.5,0.002809
4989.063,0.003579
4990.625,0.003579
4992.188,0.002295
4993.75,0.003322
4995.313,0.006405
4996.875,0.006645
4998.438,0.005617