Frecuencia(Hz),"	mm/Seg(PC)"
3.125,0.596255
4.6875,0.578718
6.25,0.587487
7.8125,0.398965
9.375,0.50857
10.9375,0.635713
12.5,0.578718
14.0625,0.679555
15.625,0.942609
17.1875,0.5283
18.75,0.335393
20.3125,0.328817
21.875,0.34197
23.4375,0.207155
25,0.184138
26.5625,0.164409
28.125,0.163313
29.6875,0.254285
31.25,0.254285
32.8125,0.188522
34.375,0.166601
35.9375,0.213731
37.5,0.250997
39.0625,0.19181
40.625,0.26963
42.1875,0.247709
43.75,0.15016
45.3125,0.23894
46.875,1.42049
48.4375,6.383437
50,6.067772
51.5625,1.117978
53.125,0.203867
54.6875,0.15564
56.25,0.130431
57.8125,0.458152
59.375,0.5283
60.9375,0.199482
62.5,0.175369
64.0625,0.491034
65.625,0.357315
67.1875,0.098097
68.75,0.101933
70.3125,0.083848
71.875,0.067408
73.4375,0.210443
75,0.229076
76.5625,0.084944
78.125,0.093165
79.6875,0.090973
81.25,0.082204
82.8125,0.083848
84.375,0.097549
85.9375,0.092069
87.5,0.059735
89.0625,0.184138
90.625,0.153448
92.1875,0.10851
93.75,0.106866
95.3125,0.640097
96.875,1.069752
98.4375,0.471305
100,0.15564
101.5625,0.064393
103.125,0.065215
104.6875,0.110154
106.25,0.116182
107.8125,0.085492
109.375,0.083848
110.9375,0.063571
112.5,0.067408
114.0625,0.066037
115.625,0.059735
117.1875,0.059735
118.75,0.041102
120.3125,0.040006
121.875,0.045486
123.4375,0.057269
125,0.060557
126.5625,0.04439
128.125,0.043568
129.6875,0.076724
131.25,0.08056
132.8125,0.11125
134.375,0.141391
135.9375,0.094809
137.5,0.071244
139.0625,0.071244
140.625,0.059735
142.1875,0.101933
143.75,0.31128
145.3125,0.370467
146.875,1.227584
148.4375,1.157436
150,0.477881
151.5625,0.440615
153.125,0.169889
154.6875,0.090425
156.25,0.14468
157.8125,0.217019
159.375,0.250997
160.9375,0.350738
162.5,0.272918
164.0625,0.196194
165.625,0.217019
167.1875,0.245517
168.75,0.370467
170.3125,0.484457
171.875,0.501994
173.4375,0.398965
175,0.31128
176.5625,0.379236
178.125,0.38362
179.6875,0.254285
181.25,0.196194
182.8125,0.180849
184.375,0.149064
185.9375,0.128787
187.5,0.123854
189.0625,0.122758
190.625,0.156736
192.1875,0.291551
193.75,0.407733
195.3125,0.189618
196.875,0.180849
198.4375,0.18633
200,0.379236
201.5625,0.207155
203.125,0.090425
204.6875,0.044664
206.25,0.061379
207.8125,0.098097
209.375,0.076724
210.9375,0.070696
212.5,0.076176
214.0625,0.067408
215.625,0.050145
217.1875,0.042472
218.75,0.03343
220.3125,0.040828
221.875,0.055077
223.4375,0.047952
225,0.040006
226.5625,0.051789
228.125,0.030279
229.6875,0.025894
231.25,0.045212
232.8125,0.032608
234.375,0.036444
235.9375,0.036718
237.5,0.048775
239.0625,0.058913
240.625,0.041924
242.1875,0.074532
243.75,0.123854
245.3125,0.298128
246.875,0.254285
248.4375,0.110154
250,0.042746
251.5625,0.04439
253.125,0.051789
254.6875,0.043842
256.25,0.055625
257.8125,0.087137
259.375,0.08056
260.9375,0.078368
262.5,0.081656
264.0625,0.047404
265.625,0.049049
267.1875,0.051789
268.75,0.059735
270.3125,0.046582
271.875,0.049871
273.4375,0.062749
275,0.061379
276.5625,0.047952
278.125,0.035622
279.6875,0.054255
281.25,0.048775
282.8125,0.033019
284.375,0.034115
285.9375,0.054255
287.5,0.076176
289.0625,0.26963
290.625,0.306896
292.1875,0.087685
293.75,0.055077
295.3125,0.061379
296.875,0.070696
298.4375,0.089329
300,0.116182
301.5625,0.052611
303.125,0.043842
304.6875,0.033704
306.25,0.053433
307.8125,0.057269
309.375,0.030964
310.9375,0.62256
312.5,1.174973
314.0625,0.56995
315.625,0.043842
317.1875,0.029457
318.75,0.030964
320.3125,0.039732
321.875,0.085492
323.4375,0.061927
325,0.025483
326.5625,0.03343
328.125,0.040828
329.6875,0.030279
331.25,0.024387
332.8125,0.014523
334.375,0.021921
335.9375,0.027127
337.5,0.061927
339.0625,0.041924
340.625,0.029868
342.1875,0.038088
343.75,0.042472
345.3125,0.03617
346.875,0.020414
348.4375,0.019592
350,0.025483
351.5625,0.026716
353.125,0.033704
354.6875,0.040006
356.25,0.034115
357.8125,0.04302
359.375,0.026305
360.9375,0.020825
362.5,0.018085
364.0625,0.022743
365.625,0.033019
367.1875,0.038362
368.75,0.03891
370.3125,0.06823
371.875,0.059735
373.4375,0.032197
375,0.033704
376.5625,0.03617
378.125,0.043842
379.6875,0.046034
381.25,0.047952
382.8125,0.125499
384.375,0.657634
385.9375,3.121571
387.5,3.06896
389.0625,0.635713
390.625,0.11125
392.1875,0.038362
393.75,0.058913
395.3125,0.040006
396.875,0.026716
398.4375,0.043842
400,0.045486
401.5625,0.043568
403.125,0.04165
404.6875,0.028223
406.25,0.042472
407.8125,0.050967
409.375,0.043568
410.9375,0.040828
412.5,0.04439
414.0625,0.054255
415.625,0.04028
417.1875,0.029046
418.75,0.055625
420.3125,0.053433
421.875,0.039732
423.4375,0.033019
425,0.026305
426.5625,0.03343
428.125,0.040828
429.6875,0.043568
431.25,0.037266
432.8125,0.045212
434.375,0.04302
435.9375,0.04713
437.5,0.08056
439.0625,0.079464
440.625,0.061379
442.1875,0.061379
443.75,0.069874
445.3125,0.060557
446.875,0.087685
448.4375,0.097549
450,0.076724
451.5625,0.08056
453.125,0.065215
454.6875,0.062749
456.25,0.049323
457.8125,0.080012
459.375,0.072888
460.9375,0.08056
462.5,0.081656
464.0625,0.112894
465.625,0.139747
467.1875,0.167697
468.75,0.181945
470.3125,0.158928
471.875,0.15016
473.4375,0.134815
475,0.117826
476.5625,0.116182
478.125,0.105221
479.6875,0.098645
481.25,0.260862
482.8125,0.515147
484.375,0.451576
485.9375,0.257573
487.5,0.166601
489.0625,0.134815
490.625,0.133719
492.1875,0.101933
493.75,0.105221
495.3125,0.132075
496.875,0.149064
498.4375,0.146872
500,0.158928
501.5625,0.16112
503.125,0.149064
504.6875,0.089329
506.25,0.07782
507.8125,0.071244
509.375,0.071244
510.9375,0.093165
512.5,0.092617
514.0625,0.149064
515.625,0.26415
517.1875,0.16112
518.75,0.079464
520.3125,0.0833
521.875,0.10851
523.4375,0.083848
525,0.08604
526.5625,0.103577
528.125,0.142487
529.6875,0.10851
531.25,0.062749
532.8125,0.058091
534.375,0.149064
535.9375,0.139747
537.5,0.054255
539.0625,0.047404
540.625,0.087137
542.1875,0.087137
543.75,0.052611
545.3125,0.076724
546.875,0.092069
548.4375,0.078368
550,0.166601
551.5625,0.174273
553.125,0.100289
554.6875,0.088781
556.25,0.099741
557.8125,0.080012
559.375,0.0833
560.9375,0.10851
562.5,0.100289
564.0625,0.105221
565.625,0.094261
567.1875,0.093165
568.75,0.103577
570.3125,0.089329
571.875,0.055625
573.4375,0.065215
575,0.069874
576.5625,0.087137
578.125,0.142487
579.6875,0.232364
581.25,0.169889
582.8125,0.105221
584.375,0.101933
585.9375,0.117826
587.5,0.07782
589.0625,0.085492
590.625,0.083848
592.1875,0.0833
593.75,0.07508
595.3125,0.079464
596.875,0.110154
598.4375,0.100289
600,0.074532
601.5625,0.0833
603.125,0.095905
604.6875,0.071244
606.25,0.056447
607.8125,0.055625
609.375,0.053433
610.9375,0.055625
612.5,0.064393
614.0625,0.082204
615.625,0.071244
617.1875,0.055625
618.75,0.04439
620.3125,0.061379
621.875,0.095905
623.4375,0.88123
625,1.560785
626.5625,0.740935
628.125,0.106866
629.6875,0.062749
631.25,0.061379
632.8125,0.072888
634.375,0.048775
635.9375,0.049049
637.5,0.048775
639.0625,0.055625
640.625,0.053433
642.1875,0.04028
643.75,0.067408
645.3125,0.067408
646.875,0.043568
648.4375,0.04302
650,0.054255
651.5625,0.061379
653.125,0.044664
654.6875,0.032608
656.25,0.049871
657.8125,0.061927
659.375,0.034526
660.9375,0.025894
662.5,0.035622
664.0625,0.038362
665.625,0.03754
667.1875,0.033704
668.75,0.030279
670.3125,0.032197
671.875,0.031375
673.4375,0.032608
675,0.069874
676.5625,0.122758
678.125,0.094809
679.6875,0.039732
681.25,0.03891
682.8125,0.056447
684.375,0.04165
685.9375,0.028223
687.5,0.027538
689.0625,0.028223
690.625,0.042472
692.1875,0.063571
693.75,0.064393
695.3125,0.044664
696.875,0.047952
698.4375,0.117826
700,0.106866
701.5625,0.040828
703.125,0.048227
704.6875,0.038088
706.25,0.027127
707.8125,0.040006
709.375,0.054255
710.9375,0.033019
712.5,0.029457
714.0625,0.046582
715.625,0.045212
717.1875,0.019592
718.75,0.015687
720.3125,0.02151
721.875,0.037266
723.4375,0.095905
725,0.098645
726.5625,0.03617
728.125,0.039732
729.6875,0.037266
731.25,0.04028
732.8125,0.041102
734.375,0.027538
735.9375,0.032197
737.5,0.041924
739.0625,0.040006
740.625,0.050967
742.1875,0.046034
743.75,0.024661
745.3125,0.024661
746.875,0.03617
748.4375,0.03617
750,0.021236
751.5625,0.032608
753.125,0.027127
754.6875,0.035348
756.25,0.050967
757.8125,0.036444
759.375,0.032197
760.9375,0.041102
762.5,0.034115
764.0625,0.043568
765.625,0.051789
767.1875,0.056447
768.75,0.03891
770.3125,0.128787
771.875,1.201279
773.4375,2.262262
775,1.104826
776.5625,0.138103
778.125,0.067408
779.6875,0.04713
781.25,0.038362
782.8125,0.034115
784.375,0.040006
785.9375,0.069052
787.5,0.094809
789.0625,0.082204
790.625,0.054255
792.1875,0.051789
793.75,0.04713
795.3125,0.045486
796.875,0.050967
798.4375,0.046308
800,0.065215
801.5625,0.064393
803.125,0.043568
804.6875,0.064393
806.25,0.069052
807.8125,0.061927
809.375,0.052611
810.9375,0.03754
812.5,0.032608
814.0625,0.040006
815.625,0.035348
817.1875,0.025483
818.75,0.042472
820.3125,0.050145
821.875,0.114538
823.4375,0.10851
825,0.050967
826.5625,0.050967
828.125,0.046308
829.6875,0.040006
831.25,0.055077
832.8125,0.055077
834.375,0.046582
835.9375,0.062749
837.5,0.0833
839.0625,0.058091
840.625,0.049049
842.1875,0.04713
843.75,0.035348
845.3125,0.026305
846.875,0.032197
848.4375,0.058913
850,0.053433
851.5625,0.053433
853.125,0.076724
854.6875,0.072888
856.25,0.047952
857.8125,0.04302
859.375,0.046034
860.9375,0.070696
862.5,0.08604
864.0625,0.087137
865.625,0.07782
867.1875,0.053433
868.75,0.112894
870.3125,0.149064
871.875,0.079464
873.4375,0.050967
875,0.03343
876.5625,0.047952
878.125,0.048227
879.6875,0.030964
881.25,0.04165
882.8125,0.045486
884.375,0.076176
885.9375,0.26415
887.5,0.257573
889.0625,0.098097
890.625,0.041102
892.1875,0.04713
893.75,0.03069
895.3125,0.024661
896.875,0.042746
898.4375,0.036718
900,0.020825
901.5625,0.027127
903.125,0.028223
904.6875,0.03069
906.25,0.034526
907.8125,0.036444
909.375,0.026716
910.9375,0.020825
912.5,0.027812
914.0625,0.033019
915.625,0.025483
917.1875,0.017674
918.75,0.020414
920.3125,0.025483
921.875,0.025072
923.4375,0.025894
925,0.033019
926.5625,0.033019
928.125,0.037266
929.6875,0.037266
931.25,0.03754
932.8125,0.04028
934.375,0.039732
935.9375,0.090425
937.5,0.160024
939.0625,0.080012
940.625,0.031375
942.1875,0.025072
943.75,0.018359
945.3125,0.011372
946.875,0.020825
948.4375,0.026305
950,0.038362
951.5625,0.032608
953.125,0.023976
954.6875,0.025483
956.25,0.025894
957.8125,0.020825
959.375,0.031786
960.9375,0.033019
962.5,0.061379
964.0625,0.112894
965.625,0.149064
967.1875,0.152352
968.75,0.069052
970.3125,0.063571
971.875,0.060557
973.4375,0.061927
975,0.037266
976.5625,0.044664
978.125,0.055625
979.6875,0.051789
981.25,0.063571
982.8125,0.098097
984.375,0.081656
985.9375,0.053433
987.5,0.039732
989.0625,0.032197
990.625,0.034115
992.1875,0.03617
993.75,0.048775
995.3125,0.04028
996.875,0.03617
998.4375,0.047952
1000,0.064393
1001.563,0.052611
1003.125,0.049049
1004.688,0.034526
1006.25,0.025483
1007.813,0.044664
1009.375,0.105221
1010.938,0.368275
1012.5,0.328817
1014.063,0.092617
1015.625,0.03343
1017.188,0.034526
1018.75,0.036444
1020.313,0.03754
1021.875,0.046308
1023.438,0.026716
1025,0.047404
1026.563,0.04439
1028.125,0.03891
1029.688,0.049323
1031.25,0.070696
1032.813,0.046582
1034.375,0.027127
1035.938,0.030964
1037.5,0.028223
1039.063,0.028634
1040.625,0.027127
1042.188,0.027812
1043.75,0.020825
1045.313,0.03343
1046.875,0.042746
1048.438,0.03617
1050,0.03617
1051.563,0.027812
1053.125,0.028634
1054.688,0.019592
1056.25,0.02151
1057.813,0.030964
1059.375,0.049323
1060.938,0.058913
1062.5,0.084944
1064.063,0.090425
1065.625,0.032608
1067.188,0.025894
1068.75,0.02151
1070.313,0.020003
1071.875,0.021236
1073.438,0.028223
1075,0.031375
1076.563,0.027127
1078.125,0.022332
1079.688,0.028223
1081.25,0.044664
1082.813,0.036718
1084.375,0.026716
1085.938,0.027127
1087.5,0.021236
1089.063,0.049871
1090.625,0.047404
1092.188,0.019181
1093.75,0.018359
1095.313,0.019181
1096.875,0.012536
1098.438,0.019592
1100,0.036444
1101.563,0.046582
1103.125,0.030279
1104.688,0.021236
1106.25,0.013769
1107.813,0.019592
1109.375,0.028634
1110.938,0.053433
1112.5,0.025072
1114.063,0.012947
1115.625,0.018085
1117.188,0.021921
1118.75,0.012947
1120.313,0.014934
1121.875,0.017674
1123.438,0.015687
1125,0.013769
1126.563,0.023154
1128.125,0.031786
1129.688,0.032197
1131.25,0.029046
1132.813,0.020003
1134.375,0.019181
1135.938,0.021236
1137.5,0.02151
1139.063,0.021921
1140.625,0.025894
1142.188,0.02151
1143.75,0.025483
1145.313,0.027127
1146.875,0.023565
1148.438,0.03617
1150,0.035622
1151.563,0.023565
1153.125,0.025072
1154.688,0.027812
1156.25,0.044664
1157.813,0.14468
1159.375,0.596255
1160.938,0.558989
1162.5,0.136459
1164.063,0.044664
1165.625,0.020414
1167.188,0.025072
1168.75,0.028634
1170.313,0.023565
1171.875,0.04713
1173.438,0.099741
1175,0.31128
1176.563,0.272918
1178.125,0.08056
1179.688,0.036718
1181.25,0.034526
1182.813,0.028634
1184.375,0.034937
1185.938,0.035348
1187.5,0.030964
1189.063,0.035622
1190.625,0.027812
1192.188,0.029457
1193.75,0.026305
1195.313,0.022332
1196.875,0.029868
1198.438,0.037266
1200,0.030964
1201.563,0.044664
1203.125,0.03891
1204.688,0.028223
1206.25,0.038088
1207.813,0.11125
1209.375,0.189618
1210.938,0.088781
1212.5,0.031786
1214.063,0.016098
1215.625,0.022332
1217.188,0.020003
1218.75,0.02151
1220.313,0.02151
1221.875,0.032197
1223.438,0.079464
1225,0.079464
1226.563,0.036718
1228.125,0.019181
1229.688,0.016509
1231.25,0.031375
1232.813,0.040828
1234.375,0.050145
1235.938,0.041924
1237.5,0.031786
1239.063,0.034937
1240.625,0.034937
1242.188,0.027812
1243.75,0.023565
1245.313,0.033704
1246.875,0.046308
1248.438,0.282783
1250,0.444999
1251.563,0.232364
1253.125,0.063571
1254.688,0.048227
1256.25,0.092069
1257.813,0.065215
1259.375,0.027812
1260.938,0.03069
1262.5,0.036444
1264.063,0.031375
1265.625,0.029457
1267.188,0.019592
1268.75,0.025072
1270.313,0.032197
1271.875,0.039732
1273.438,0.065215
1275,0.066859
1276.563,0.07234
1278.125,0.04439
1279.688,0.035622
1281.25,0.025483
1282.813,0.018085
1284.375,0.017674
1285.938,0.021236
1287.5,0.040006
1289.063,0.048775
1290.625,0.025894
1292.188,0.022332
1293.75,0.024661
1295.313,0.026716
1296.875,0.027812
1298.438,0.028223
1300,0.030964
1301.563,0.044664
1303.125,0.038362
1304.688,0.018359
1306.25,0.025072
1307.813,0.022332
1309.375,0.029868
1310.938,0.029868
1312.5,0.021921
1314.063,0.038362
1315.625,0.029457
1317.188,0.021236
1318.75,0.023565
1320.313,0.023976
1321.875,0.037266
1323.438,0.106866
1325,0.092069
1326.563,0.092069
1328.125,0.082204
1329.688,0.032197
1331.25,0.023154
1332.813,0.016852
1334.375,0.023154
1335.938,0.022743
1337.5,0.027127
1339.063,0.029457
1340.625,0.026305
1342.188,0.021236
1343.75,0.016852
1345.313,0.011372
1346.875,0.019181
1348.438,0.025894
1350,0.033019
1351.563,0.033019
1353.125,0.050145
1354.688,0.039732
1356.25,0.014523
1357.813,0.021921
1359.375,0.023565
1360.938,0.017674
1362.5,0.023976
1364.063,0.030279
1365.625,0.021236
1367.188,0.018359
1368.75,0.022743
1370.313,0.016852
1371.875,0.017263
1373.438,0.020825
1375,0.027812
1376.563,0.035622
1378.125,0.027127
1379.688,0.01877
1381.25,0.015345
1382.813,0.021236
1384.375,0.014112
1385.938,0.020003
1387.5,0.016509
1389.063,0.02151
1390.625,0.021921
1392.188,0.022743
1393.75,0.027538
1395.313,0.026716
1396.875,0.133719
1398.438,0.207155
1400,0.090973
1401.563,0.03343
1403.125,0.017674
1404.688,0.025072
1406.25,0.040828
1407.813,0.035348
1409.375,0.029046
1410.938,0.026305
1412.5,0.028634
1414.063,0.03069
1415.625,0.021236
1417.188,0.020414
1418.75,0.019181
1420.313,0.019592
1421.875,0.023154
1423.438,0.028223
1425,0.031375
1426.563,0.027812
1428.125,0.026716
1429.688,0.024661
1431.25,0.021921
1432.813,0.029868
1434.375,0.029868
1435.938,0.020825
1437.5,0.012536
1439.063,0.017674
1440.625,0.016098
1442.188,0.020414
1443.75,0.021921
1445.313,0.047404
1446.875,0.040006
1448.438,0.069052
1450,0.139747
1451.563,0.084944
1453.125,0.027538
1454.688,0.022743
1456.25,0.020825
1457.813,0.018085
1459.375,0.018359
1460.938,0.028634
1462.5,0.037266
1464.063,0.03617
1465.625,0.049049
1467.188,0.035622
1468.75,0.030279
1470.313,0.020825
1471.875,0.046308
1473.438,0.052611
1475,0.030964
1476.563,0.029868
1478.125,0.030279
1479.688,0.023154
1481.25,0.023976
1482.813,0.03069
1484.375,0.027538
1485.938,0.045212
1487.5,0.117826
1489.063,0.101933
1490.625,0.038362
1492.188,0.028634
1493.75,0.033019
1495.313,0.026305
1496.875,0.067408
1498.438,0.080012
1500,0.061927
1501.563,0.04165
1503.125,0.039184
1504.688,0.032608
1506.25,0.033019
1507.813,0.028223
1509.375,0.027812
1510.938,0.04439
1512.5,0.061379
1514.063,0.059735
1515.625,0.027538
1517.188,0.027127
1518.75,0.026716
1520.313,0.027812
1521.875,0.029457
1523.438,0.034937
1525,0.041924
1526.563,0.038088
1528.125,0.044664
1529.688,0.035348
1531.25,0.023976
1532.813,0.04165
1534.375,0.055625
1535.938,0.122758
1537.5,0.087137
1539.063,0.049871
1540.625,0.06823
1542.188,0.08604
1543.75,0.079464
1545.313,0.370467
1546.875,0.666403
1548.438,0.355123
1550,0.092069
1551.563,0.063571
1553.125,0.059735
1554.688,0.058913
1556.25,0.03754
1557.813,0.082204
1559.375,0.174273
1560.938,0.670787
1562.5,0.990836
1564.063,0.50857
1565.625,0.15564
1567.188,0.059735
1568.75,0.058091
1570.313,0.050145
1571.875,0.092617
1573.438,0.117826
1575,0.070696
1576.563,0.058913
1578.125,0.053433
1579.688,0.042746
1581.25,0.040006
1582.813,0.049871
1584.375,0.06823
1585.938,0.082204
1587.5,0.245517
1589.063,0.242229
1590.625,0.098097
1592.188,0.058091
1593.75,0.084944
1595.313,0.101933
1596.875,0.092069
1598.438,0.07508
1600,0.071244
1601.563,0.047404
1603.125,0.04302
1604.688,0.049871
1606.25,0.049049
1607.813,0.04165
1609.375,0.08604
1610.938,0.087137
1612.5,0.095905
1614.063,0.170985
1615.625,0.117826
1617.188,0.056447
1618.75,0.041924
1620.313,0.069874
1621.875,0.090973
1623.438,0.0833
1625,0.092069
1626.563,0.130431
1628.125,0.082204
1629.688,0.074532
1631.25,0.092069
1632.813,0.110154
1634.375,0.149064
1635.938,0.434039
1637.5,0.361699
1639.063,0.15016
1640.625,0.090973
1642.188,0.160024
1643.75,0.245517
1645.313,0.139747
1646.875,0.055077
1648.438,0.056447
1650,0.069874
1651.563,0.105221
1653.125,0.096453
1654.688,0.07782
1656.25,0.07782
1657.813,0.101933
1659.375,0.094261
1660.938,0.090973
1662.5,0.149064
1664.063,0.085492
1665.625,0.057269
1667.188,0.07234
1668.75,0.061927
1670.313,0.125499
1671.875,0.141391
1673.438,0.079464
1675,0.139747
1676.563,0.15016
1678.125,0.090973
1679.688,0.067408
1681.25,0.071244
1682.813,0.0833
1684.375,0.080012
1685.938,0.089329
1687.5,0.089329
1689.063,0.123854
1690.625,0.207155
1692.188,0.210443
1693.75,0.128787
1695.313,0.116182
1696.875,0.080012
1698.438,0.057269
1700,0.082204
1701.563,0.101933
1703.125,0.08056
1704.688,0.072888
1706.25,0.070696
1707.813,0.046034
1709.375,0.098645
1710.938,0.145776
1712.5,0.136459
1714.063,0.14468
1715.625,0.087685
1717.188,0.100289
1718.75,0.085492
1720.313,0.199482
1721.875,0.164409
1723.438,0.103577
1725,0.11125
1726.563,0.15564
1728.125,0.090425
1729.688,0.090973
1731.25,0.076724
1732.813,0.099741
1734.375,0.114538
1735.938,0.11125
1737.5,0.117826
1739.063,0.451576
1740.625,0.552413
1742.188,0.199482
1743.75,0.121114
1745.313,0.141391
1746.875,0.10851
1748.438,0.069052
1750,0.059735
1751.563,0.054255
1753.125,0.078368
1754.688,0.089329
1756.25,0.076176
1757.813,0.061379
1759.375,0.066859
1760.938,0.098645
1762.5,0.087137
1764.063,0.053433
1765.625,0.055077
1767.188,0.083848
1768.75,0.138103
1770.313,0.145776
1771.875,0.117826
1773.438,0.089329
1775,0.070696
1776.563,0.0833
1778.125,0.112894
1779.688,0.092617
1781.25,0.090425
1782.813,0.203867
1784.375,0.565565
1785.938,0.515147
1787.5,0.153448
1789.063,0.174273
1790.625,0.128787
1792.188,0.085492
1793.75,0.079464
1795.313,0.063571
1796.875,0.093165
1798.438,0.15564
1800,0.407733
1801.563,0.34197
1803.125,0.145776
1804.688,0.076724
1806.25,0.081656
1807.813,0.08604
1809.375,0.116182
1810.938,0.127143
1812.5,0.084944
1814.063,0.063571
1815.625,0.054255
1817.188,0.132075
1818.75,0.229076
1820.313,0.180849
1821.875,0.127143
1823.438,0.110154
1825,0.121114
1826.563,0.105221
1828.125,0.100289
1829.688,0.112894
1831.25,0.169889
1832.813,0.339778
1834.375,0.272918
1835.938,0.254285
1837.5,0.298128
1839.063,0.149064
1840.625,0.082204
1842.188,0.083848
1843.75,0.096453
1845.313,0.079464
1846.875,0.178657
1848.438,0.333201
1850,0.247709
1851.563,0.112894
1853.125,0.071244
1854.688,0.059735
1856.25,0.054255
1857.813,0.092617
1859.375,0.110154
1860.938,0.11947
1862.5,0.15016
1864.063,0.114538
1865.625,0.087137
1867.188,0.127143
1868.75,0.15016
1870.313,0.217019
1871.875,0.322241
1873.438,1.104826
1875,1.657238
1876.563,0.88123
1878.125,0.328817
1879.688,0.094261
1881.25,0.07508
1882.813,0.098097
1884.375,0.127143
1885.938,0.11947
1887.5,0.106866
1889.063,0.088781
1890.625,0.073436
1892.188,0.058913
1893.75,0.038362
1895.313,0.060557
1896.875,0.072888
1898.438,0.096453
1900,0.213731
1901.563,0.220307
1903.125,0.100289
1904.688,0.071244
1906.25,0.072888
1907.813,0.054255
1909.375,0.04713
1910.938,0.036718
1912.5,0.052611
1914.063,0.049871
1915.625,0.069874
1917.188,0.110154
1918.75,0.073436
1920.313,0.063571
1921.875,0.090425
1923.438,0.166601
1925,0.142487
1926.563,0.138103
1928.125,0.229076
1929.688,0.200578
1931.25,0.304704
1932.813,0.982067
1934.375,0.889998
1935.938,0.293743
1937.5,0.095905
1939.063,0.076724
1940.625,0.065215
1942.188,0.064393
1943.75,0.039732
1945.313,0.080012
1946.875,0.181945
1948.438,0.471305
1950,0.394581
1951.563,0.139747
1953.125,0.056447
1954.688,0.056447
1956.25,0.038362
1957.813,0.037266
1959.375,0.04028
1960.938,0.043568
1962.5,0.043842
1964.063,0.050967
1965.625,0.079464
1967.188,0.060557
1968.75,0.032197
1970.313,0.040828
1971.875,0.052611
1973.438,0.046582
1975,0.055625
1976.563,0.052611
1978.125,0.059735
1979.688,0.04028
1981.25,0.050145
1982.813,0.066037
1984.375,0.034937
1985.938,0.027127
1987.5,0.028223
1989.063,0.031375
1990.625,0.038362
1992.188,0.04028
1993.75,0.03343
1995.313,0.030279
1996.875,0.046582
1998.438,0.048227
2000,0.041924
2001.563,0.034526
2003.125,0.027538
2004.688,0.03754
2006.25,0.029868
2007.813,0.025072
2009.375,0.028634
2010.938,0.024661
2012.5,0.046582
2014.063,0.056447
2015.625,0.049871
2017.188,0.034937
2018.75,0.043842
2020.313,0.038362
2021.875,0.097549
2023.438,0.169889
2025,0.098097
2026.563,0.03891
2028.125,0.081656
2029.688,0.18633
2031.25,0.139747
2032.813,0.039184
2034.375,0.029457
2035.938,0.04028
2037.5,0.059735
2039.063,0.062749
2040.625,0.041924
2042.188,0.025483
2043.75,0.024387
2045.313,0.021236
2046.875,0.028223
2048.438,0.026716
2050,0.026716
2051.563,0.023154
2053.125,0.030279
2054.688,0.034937
2056.25,0.027812
2057.813,0.024387
2059.375,0.019181
2060.938,0.023565
2062.5,0.040828
2064.063,0.08604
2065.625,0.079464
2067.188,0.043842
2068.75,0.027538
2070.313,0.027127
2071.875,0.024661
2073.438,0.034115
2075,0.055625
2076.563,0.051789
2078.125,0.042472
2079.688,0.03617
2081.25,0.028223
2082.813,0.029868
2084.375,0.028223
2085.938,0.027812
2087.5,0.023565
2089.063,0.019592
2090.625,0.025072
2092.188,0.024661
2093.75,0.011372
2095.313,0.024661
2096.875,0.046582
2098.438,0.038362
2100,0.029457
2101.563,0.019592
2103.125,0.031375
2104.688,0.025483
2106.25,0.020825
2107.813,0.029457
2109.375,0.035622
2110.938,0.03069
2112.5,0.042472
2114.063,0.056447
2115.625,0.033019
2117.188,0.022332
2118.75,0.02151
2120.313,0.023976
2121.875,0.019181
2123.438,0.022743
2125,0.069052
2126.563,0.16112
2128.125,0.095905
2129.688,0.019592
2131.25,0.013769
2132.813,0.02151
2134.375,0.021921
2135.938,0.023976
2137.5,0.01877
2139.063,0.019592
2140.625,0.018359
2142.188,0.017674
2143.75,0.012947
2145.313,0.016509
2146.875,0.013769
2148.438,0.009796
2150,0.012536
2151.563,0.010207
2153.125,0.010961
2154.688,0.013769
2156.25,0.017263
2157.813,0.022332
2159.375,0.025894
2160.938,0.038362
2162.5,0.027812
2164.063,0.021921
2165.625,0.014523
2167.188,0.020003
2168.75,0.016098
2170.313,0.025894
2171.875,0.041924
2173.438,0.028223
2175,0.020414
2176.563,0.019592
2178.125,0.016509
2179.688,0.016509
2181.25,0.014523
2182.813,0.029457
2184.375,0.056447
2185.938,0.184138
2187.5,0.250997
2189.063,0.146872
2190.625,0.06823
2192.188,0.021921
2193.75,0.015345
2195.313,0.015687
2196.875,0.01877
2198.438,0.018359
2200,0.020825
2201.563,0.016852
2203.125,0.012194
2204.688,0.013769
2206.25,0.017674
2207.813,0.019592
2209.375,0.034937
2210.938,0.07508
2212.5,0.110154
2214.063,0.071244
2215.625,0.037266
2217.188,0.021236
2218.75,0.024661
2220.313,0.030279
2221.875,0.023976
2223.438,0.018359
2225,0.021236
2226.563,0.020414
2228.125,0.010961
2229.688,0.006679
2231.25,0.010207
2232.813,0.014112
2234.375,0.020003
2235.938,0.027127
2237.5,0.033019
2239.063,0.053433
2240.625,0.04028
2242.188,0.022332
2243.75,0.013358
2245.313,0.009796
2246.875,0.011372
2248.438,0.014523
2250,0.020003
2251.563,0.031786
2253.125,0.025894
2254.688,0.018085
2256.25,0.016852
2257.813,0.011372
2259.375,0.032608
2260.938,0.057269
2262.5,0.043568
2264.063,0.023154
2265.625,0.025483
2267.188,0.017263
2268.75,0.015345
2270.313,0.023154
2271.875,0.024661
2273.438,0.018359
2275,0.012947
2276.563,0.012947
2278.125,0.013358
2279.688,0.011372
2281.25,0.010207
2282.813,0.012536
2284.375,0.008631
2285.938,0.011783
2287.5,0.016509
2289.063,0.016509
2290.625,0.008631
2292.188,0.009385
2293.75,0.014523
2295.313,0.016098
2296.875,0.011783
2298.438,0.011372
2300,0.016852
2301.563,0.013358
2303.125,0.010207
2304.688,0.014523
2306.25,0.017674
2307.813,0.018085
2309.375,0.025483
2310.938,0.026305
2312.5,0.013358
2314.063,0.019592
2315.625,0.02151
2317.188,0.024387
2318.75,0.03617
2320.313,0.054255
2321.875,0.029046
2323.438,0.013358
2325,0.012536
2326.563,0.013769
2328.125,0.009042
2329.688,0.008631
2331.25,0.006268
2332.813,0.016098
2334.375,0.039732
2335.938,0.055625
2337.5,0.031786
2339.063,0.015687
2340.625,0.009385
2342.188,0.014934
2343.75,0.016852
2345.313,0.013769
2346.875,0.009385
2348.438,0.014934
2350,0.019181
2351.563,0.024387
2353.125,0.019592
2354.688,0.010618
2356.25,0.010618
2357.813,0.015687
2359.375,0.021236
2360.938,0.015687
2362.5,0.011372
2364.063,0.010618
2365.625,0.020414
2367.188,0.021236
2368.75,0.014934
2370.313,0.009385
2371.875,0.010961
2373.438,0.009385
2375,0.008631
2376.563,0.012536
2378.125,0.013358
2379.688,0.012947
2381.25,0.010618
2382.813,0.012536
2384.375,0.011783
2385.938,0.013358
2387.5,0.016098
2389.063,0.010618
2390.625,0.007467
2392.188,0.009385
2393.75,0.009796
2395.313,0.009796
2396.875,0.007844
2398.438,0.019592
2400,0.020414
2401.563,0.016852
2403.125,0.008631
2404.688,0.009385
2406.25,0.012536
2407.813,0.023976
2409.375,0.03754
2410.938,0.024661
2412.5,0.014112
2414.063,0.013769
2415.625,0.021236
2417.188,0.022332
2418.75,0.014523
2420.313,0.014523
2421.875,0.014934
2423.438,0.027812
2425,0.052611
2426.563,0.040828
2428.125,0.021921
2429.688,0.015345
2431.25,0.010207
2432.813,0.007056
2434.375,0.012536
2435.938,0.010207
2437.5,0.009796
2439.063,0.009042
2440.625,0.008255
2442.188,0.009796
2443.75,0.006679
2445.313,0.009385
2446.875,0.012536
2448.438,0.016509
2450,0.020003
2451.563,0.01877
2453.125,0.010618
2454.688,0.012536
2456.25,0.010618
2457.813,0.010961
2459.375,0.009385
2460.938,0.009796
2462.5,0.009385
2464.063,0.011372
2465.625,0.016098
2467.188,0.011372
2468.75,0.009385
2470.313,0.007844
2471.875,0.022743
2473.438,0.03891
2475,0.025483
2476.563,0.014934
2478.125,0.012194
2479.688,0.008631
2481.25,0.00548
2482.813,0.009796
2484.375,0.016509
2485.938,0.018359
2487.5,0.014112
2489.063,0.011372
2490.625,0.010618
2492.188,0.014112
2493.75,0.017263
2495.313,0.034526
2496.875,0.058913
2498.438,0.156736
2500,0.195098
2501.563,0.112894
2503.125,0.047952
2504.688,0.022332
2506.25,0.026305
2507.813,0.023154
2509.375,0.013769
2510.938,0.014112
2512.5,0.017263
2514.063,0.012536
2515.625,0.008631
2517.188,0.009042
2518.75,0.012194
2520.313,0.013769
2521.875,0.014112
2523.438,0.02151
2525,0.04302
2526.563,0.045212
2528.125,0.025894
2529.688,0.010207
2531.25,0.005891
2532.813,0.004316
2534.375,0.004692
2535.938,0.006268
2537.5,0.007844
2539.063,0.008255
2540.625,0.005891
2542.188,0.007056
2543.75,0.008255
2545.313,0.010618
2546.875,0.013358
2548.438,0.011372
2550,0.010961
2551.563,0.019181
2553.125,0.018085
2554.688,0.012194
2556.25,0.010961
2557.813,0.023565
2559.375,0.020825
2560.938,0.012536
2562.5,0.009385
2564.063,0.009385
2565.625,0.009385
2567.188,0.007844
2568.75,0.007056
2570.313,0.008631
2571.875,0.015687
2573.438,0.028634
2575,0.023565
2576.563,0.011783
2578.125,0.009385
2579.688,0.008255
2581.25,0.006268
2582.813,0.007467
2584.375,0.006679
2585.938,0.006268
2587.5,0.008255
2589.063,0.007056
2590.625,0.005104
2592.188,0.00548
2593.75,0.007056
2595.313,0.006679
2596.875,0.009385
2598.438,0.012194
2600,0.012947
2601.563,0.013358
2603.125,0.014112
2604.688,0.009796
2606.25,0.010961
2607.813,0.010961
2609.375,0.020003
2610.938,0.020825
2612.5,0.013769
2614.063,0.008631
2615.625,0.005891
2617.188,0.009796
2618.75,0.007844
2620.313,0.007467
2621.875,0.006679
2623.438,0.007056
2625,0.00548
2626.563,0.005104
2628.125,0.007844
2629.688,0.008255
2631.25,0.005104
2632.813,0.006268
2634.375,0.007056
2635.938,0.007056
2637.5,0.007056
2639.063,0.006679
2640.625,0.007844
2642.188,0.006679
2643.75,0.007467
2645.313,0.006268
2646.875,0.008255
2648.438,0.011783
2650,0.008255
2651.563,0.009042
2653.125,0.009385
2654.688,0.010961
2656.25,0.012194
2657.813,0.009385
2659.375,0.007844
2660.938,0.006679
2662.5,0.015687
2664.063,0.01877
2665.625,0.012947
2667.188,0.010618
2668.75,0.007056
2670.313,0.008631
2671.875,0.008631
2673.438,0.009385
2675,0.008631
2676.563,0.007844
2678.125,0.008255
2679.688,0.007056
2681.25,0.010618
2682.813,0.011372
2684.375,0.011783
2685.938,0.008255
2687.5,0.007467
2689.063,0.007467
2690.625,0.008255
2692.188,0.008631
2693.75,0.004692
2695.313,0.007056
2696.875,0.008631
2698.438,0.006679
2700,0.006268
2701.563,0.006268
2703.125,0.008631
2704.688,0.009796
2706.25,0.026305
2707.813,0.022743
2709.375,0.009796
2710.938,0.010207
2712.5,0.010618
2714.063,0.007467
2715.625,0.010207
2717.188,0.009042
2718.75,0.009042
2720.313,0.011372
2721.875,0.016509
2723.438,0.012947
2725,0.010961
2726.563,0.009385
2728.125,0.008255
2729.688,0.009385
2731.25,0.010961
2732.813,0.012194
2734.375,0.008255
2735.938,0.014523
2737.5,0.022743
2739.063,0.014523
2740.625,0.011372
2742.188,0.008255
2743.75,0.007467
2745.313,0.008631
2746.875,0.009042
2748.438,0.007844
2750,0.006679
2751.563,0.009385
2753.125,0.010618
2754.688,0.006268
2756.25,0.007467
2757.813,0.014112
2759.375,0.025483
2760.938,0.023154
2762.5,0.012947
2764.063,0.012947
2765.625,0.008255
2767.188,0.005104
2768.75,0.008631
2770.313,0.007467
2771.875,0.010207
2773.438,0.015345
2775,0.015687
2776.563,0.012194
2778.125,0.009385
2779.688,0.011372
2781.25,0.021921
2782.813,0.020825
2784.375,0.061379
2785.938,0.100289
2787.5,0.07234
2789.063,0.040828
2790.625,0.018359
2792.188,0.010961
2793.75,0.015687
2795.313,0.022332
2796.875,0.03343
2798.438,0.04165
2800,0.027127
2801.563,0.019592
2803.125,0.030279
2804.688,0.029868
2806.25,0.027812
2807.813,0.063571
2809.375,0.100289
2810.938,0.247709
2812.5,0.289359
2814.063,0.175369
2815.625,0.081656
2817.188,0.020003
2818.75,0.015345
2820.313,0.016098
2821.875,0.016852
2823.438,0.021921
2825,0.026716
2826.563,0.014112
2828.125,0.008631
2829.688,0.009796
2831.25,0.010207
2832.813,0.015687
2834.375,0.01877
2835.938,0.030964
2837.5,0.064393
2839.063,0.055625
2840.625,0.03343
2842.188,0.020003
2843.75,0.010961
2845.313,0.011372
2846.875,0.009385
2848.438,0.006268
2850,0.009042
2851.563,0.010961
2853.125,0.008255
2854.688,0.012194
2856.25,0.013769
2857.813,0.008631
2859.375,0.009385
2860.938,0.012947
2862.5,0.020825
2864.063,0.031786
2865.625,0.023154
2867.188,0.016098
2868.75,0.010961
2870.313,0.013358
2871.875,0.010961
2873.438,0.010207
2875,0.009042
2876.563,0.010207
2878.125,0.010207
2879.688,0.013358
2881.25,0.011372
2882.813,0.010961
2884.375,0.014934
2885.938,0.026716
2887.5,0.023154
2889.063,0.014112
2890.625,0.013769
2892.188,0.025894
2893.75,0.027538
2895.313,0.016509
2896.875,0.007467
2898.438,0.010961
2900,0.012194
2901.563,0.009796
2903.125,0.008255
2904.688,0.008255
2906.25,0.008255
2907.813,0.010207
2909.375,0.009042
2910.938,0.007844
2912.5,0.007056
2914.063,0.007056
2915.625,0.007844
2917.188,0.004692
2918.75,0.006679
2920.313,0.004316
2921.875,0.008631
2923.438,0.009042
2925,0.009385
2926.563,0.009796
2928.125,0.007467
2929.688,0.005104
2931.25,0.007467
2932.813,0.007056
2934.375,0.008631
2935.938,0.010618
2937.5,0.010618
2939.063,0.007844
2940.625,0.008255
2942.188,0.009385
2943.75,0.015687
2945.313,0.020825
2946.875,0.014934
2948.438,0.007056
2950,0.006679
2951.563,0.007467
2953.125,0.009042
2954.688,0.007844
2956.25,0.009385
2957.813,0.007467
2959.375,0.010961
2960.938,0.014112
2962.5,0.011372
2964.063,0.008255
2965.625,0.007467
2967.188,0.007467
2968.75,0.007056
2970.313,0.007844
2971.875,0.007467
2973.438,0.007056
2975,0.00548
2976.563,0.00548
2978.125,0.004692
2979.688,0.006268
2981.25,0.003528
2982.813,0.007467
2984.375,0.008255
2985.938,0.010207
2987.5,0.010207
2989.063,0.011783
2990.625,0.012536
2992.188,0.009385
2993.75,0.009042
2995.313,0.009796
2996.875,0.009385
2998.438,0.009385
3000,0.005104
3001.563,0.007467
3003.125,0.008255
3004.688,0.007467
3006.25,0.007056
3007.813,0.006268
3009.375,0.005891
3010.938,0.006679
3012.5,0.006268
3014.063,0.003528
3015.625,0.005104
3017.188,0.006679
3018.75,0.007844
3020.313,0.008631
3021.875,0.008631
3023.438,0.007844
3025,0.008631
3026.563,0.006268
3028.125,0.00548
3029.688,0.006268
3031.25,0.007056
3032.813,0.008255
3034.375,0.007056
3035.938,0.00548
3037.5,0.00548
3039.063,0.005891
3040.625,0.005891
3042.188,0.005891
3043.75,0.007467
3045.313,0.007844
3046.875,0.006268
3048.438,0.008255
3050,0.010207
3051.563,0.012194
3053.125,0.010618
3054.688,0.007056
3056.25,0.005104
3057.813,0.006679
3059.375,0.003922
3060.938,0.004692
3062.5,0.00548
3064.063,0.00548
3065.625,0.004692
3067.188,0.004692
3068.75,0.005891
3070.313,0.008255
3071.875,0.013358
3073.438,0.012194
3075,0.009385
3076.563,0.006679
3078.125,0.006268
3079.688,0.007056
3081.25,0.007467
3082.813,0.006679
3084.375,0.006268
3085.938,0.007467
3087.5,0.007844
3089.063,0.008255
3090.625,0.008631
3092.188,0.009796
3093.75,0.022743
3095.313,0.019592
3096.875,0.030964
3098.438,0.048775
3100,0.038088
3101.563,0.023154
3103.125,0.012194
3104.688,0.007056
3106.25,0.008631
3107.813,0.009385
3109.375,0.011372
3110.938,0.015687
3112.5,0.013358
3114.063,0.010618
3115.625,0.009385
3117.188,0.008255
3118.75,0.012947
3120.313,0.031375
3121.875,0.046034
3123.438,0.105221
3125,0.116182
3126.563,0.07508
3128.125,0.03754
3129.688,0.010207
3131.25,0.007467
3132.813,0.007844
3134.375,0.007467
3135.938,0.010618
3137.5,0.012536
3139.063,0.009042
3140.625,0.005891
3142.188,0.00548
3143.75,0.007844
3145.313,0.007467
3146.875,0.008631
3148.438,0.010618
3150,0.022332
3151.563,0.020825
3153.125,0.012536
3154.688,0.006268
3156.25,0.00548
3157.813,0.005104
3159.375,0.005104
3160.938,0.005104
3162.5,0.004316
3164.063,0.004692
3165.625,0.003922
3167.188,0.006268
3168.75,0.007056
3170.313,0.006679
3171.875,0.008631
3173.438,0.009042
3175,0.011783
3176.563,0.013358
3178.125,0.009042
3179.688,0.005104
3181.25,0.005104
3182.813,0.008255
3184.375,0.008255
3185.938,0.007844
3187.5,0.007467
3189.063,0.009796
3190.625,0.009385
3192.188,0.004316
3193.75,0.006679
3195.313,0.009042
3196.875,0.014112
3198.438,0.020414
3200,0.015345
3201.563,0.007844
3203.125,0.005104
3204.688,0.005104
3206.25,0.004692
3207.813,0.003528
3209.375,0.003134
3210.938,0.005104
3212.5,0.005104
3214.063,0.00274
3215.625,0.002346
3217.188,0.003922
3218.75,0.003922
3220.313,0.005104
3221.875,0.006268
3223.438,0.007467
3225,0.007467
3226.563,0.00548
3228.125,0.003134
3229.688,0.004692
3231.25,0.005891
3232.813,0.005891
3234.375,0.00548
3235.938,0.00548
3237.5,0.00548
3239.063,0.00548
3240.625,0.005891
3242.188,0.00548
3243.75,0.00548
3245.313,0.006268
3246.875,0.004692
3248.438,0.002346
3250,0.004316
3251.563,0.00548
3253.125,0.003528
3254.688,0.003528
3256.25,0.005104
3257.813,0.004316
3259.375,0.004316
3260.938,0.003922
3262.5,0.00548
3264.063,0.004316
3265.625,0.005891
3267.188,0.004316
3268.75,0.004316
3270.313,0.005104
3271.875,0.008255
3273.438,0.009042
3275,0.00548
3276.563,0.00548
3278.125,0.010207
3279.688,0.012947
3281.25,0.009042
3282.813,0.006268
3284.375,0.007056
3285.938,0.005891
3287.5,0.007844
3289.063,0.004692
3290.625,0.004692
3292.188,0.005104
3293.75,0.005104
3295.313,0.003922
3296.875,0.003528
3298.438,0.004316
3300,0.004692
3301.563,0.006679
3303.125,0.005104
3304.688,0.00548
3306.25,0.005104
3307.813,0.003922
3309.375,0.004692
3310.938,0.006268
3312.5,0.00548
3314.063,0.006268
3315.625,0.007056
3317.188,0.00548
3318.75,0.004692
3320.313,0.005104
3321.875,0.005891
3323.438,0.006268
3325,0.003922
3326.563,0.004692
3328.125,0.003922
3329.688,0.004692
3331.25,0.005104
3332.813,0.006268
3334.375,0.009385
3335.938,0.007844
3337.5,0.003922
3339.063,0.002346
3340.625,0.004316
3342.188,0.004316
3343.75,0.003922
3345.313,0.004692
3346.875,0.004316
3348.438,0.003528
3350,0.00548
3351.563,0.005104
3353.125,0.005104
3354.688,0.004692
3356.25,0.003134
3357.813,0.006268
3359.375,0.007844
3360.938,0.004692
3362.5,0.003922
3364.063,0.003922
3365.625,0.004316
3367.188,0.004692
3368.75,0.003528
3370.313,0.005104
3371.875,0.008255
3373.438,0.016852
3375,0.029457
3376.563,0.02151
3378.125,0.011372
3379.688,0.005891
3381.25,0.00548
3382.813,0.009385
3384.375,0.007056
3385.938,0.006268
3387.5,0.006268
3389.063,0.003528
3390.625,0.003134
3392.188,0.003528
3393.75,0.004316
3395.313,0.005104
3396.875,0.003922
3398.438,0.003134
3400,0.005104
3401.563,0.005891
3403.125,0.006268
3404.688,0.005104
3406.25,0.004692
3407.813,0.00548
3409.375,0.007056
3410.938,0.007844
3412.5,0.009385
3414.063,0.009042
3415.625,0.00548
3417.188,0.005891
3418.75,0.007056
3420.313,0.006268
3421.875,0.009042
3423.438,0.009042
3425,0.004692
3426.563,0.003922
3428.125,0.004692
3429.688,0.00548
3431.25,0.005104
3432.813,0.006268
3434.375,0.007467
3435.938,0.013769
3437.5,0.016852
3439.063,0.012947
3440.625,0.007056
3442.188,0.003922
3443.75,0.005104
3445.313,0.004692
3446.875,0.003134
3448.438,0.004316
3450,0.005104
3451.563,0.00548
3453.125,0.004692
3454.688,0.004316
3456.25,0.004692
3457.813,0.004692
3459.375,0.004692
3460.938,0.005104
3462.5,0.006679
3464.063,0.00548
3465.625,0.005104
3467.188,0.003922
3468.75,0.007844
3470.313,0.010207
3471.875,0.009042
3473.438,0.007056
3475,0.00548
3476.563,0.004316
3478.125,0.005104
3479.688,0.008631
3481.25,0.007467
3482.813,0.00548
3484.375,0.003528
3485.938,0.004692
3487.5,0.00548
3489.063,0.006268
3490.625,0.003922
3492.188,0.003134
3493.75,0.001961
3495.313,0.005891
3496.875,0.006679
3498.438,0.003922
3500,0.003134
3501.563,0.003528
3503.125,0.003528
3504.688,0.003528
3506.25,0.003922
3507.813,0.004692
3509.375,0.00548
3510.938,0.006268
3512.5,0.004692
3514.063,0.004316
3515.625,0.003134
3517.188,0.003922
3518.75,0.003528
3520.313,0.003134
3521.875,0.003922
3523.438,0.003922
3525,0.003922
3526.563,0.00274
3528.125,0.002346
3529.688,0.00274
3531.25,0.00274
3532.813,0.00274
3534.375,0.002346
3535.938,0.002346
3537.5,0.003528
3539.063,0.003134
3540.625,0.003528
3542.188,0.003922
3543.75,0.00274
3545.313,0.003528
3546.875,0.003922
3548.438,0.004692
3550,0.004316
3551.563,0.00274
3553.125,0.003528
3554.688,0.003134
3556.25,0.003528
3557.813,0.003528
3559.375,0.003528
3560.938,0.003528
3562.5,0.004692
3564.063,0.004692
3565.625,0.003528
3567.188,0.003528
3568.75,0.003528
3570.313,0.003134
3571.875,0.003134
3573.438,0.001961
3575,0.005104
3576.563,0.007056
3578.125,0.003922
3579.688,0.003528
3581.25,0.003134
3582.813,0.003922
3584.375,0.004316
3585.938,0.003922
3587.5,0.004692
3589.063,0.004316
3590.625,0.003528
3592.188,0.003134
3593.75,0.002346
3595.313,0.003134
3596.875,0.003922
3598.438,0.00274
3600,0.005104
3601.563,0.003922
3603.125,0.005104
3604.688,0.004692
3606.25,0.003134
3607.813,0.003134
3609.375,0.003134
3610.938,0.003134
3612.5,0.00274
3614.063,0.006268
3615.625,0.005891
3617.188,0.003922
3618.75,0.003134
3620.313,0.004316
3621.875,0.004692
3623.438,0.003134
3625,0.002346
3626.563,0.003528
3628.125,0.003922
3629.688,0.003134
3631.25,0.003134
3632.813,0.00274
3634.375,0.003134
3635.938,0.004316
3637.5,0.002346
3639.063,0.002346
3640.625,0.003134
3642.188,0.003134
3643.75,0.003922
3645.313,0.003922
3646.875,0.004692
3648.438,0.003528
3650,0.003134
3651.563,0.004692
3653.125,0.006268
3654.688,0.003922
3656.25,0.00274
3657.813,0.003134
3659.375,0.005104
3660.938,0.005104
3662.5,0.004316
3664.063,0.003922
3665.625,0.003528
3667.188,0.003528
3668.75,0.003922
3670.313,0.005104
3671.875,0.006679
3673.438,0.007467
3675,0.005104
3676.563,0.004692
3678.125,0.003134
3679.688,0.002346
3681.25,0.00274
3682.813,0.003134
3684.375,0.00274
3685.938,0.004316
3687.5,0.003528
3689.063,0.003528
3690.625,0.003134
3692.188,0.00274
3693.75,0.004692
3695.313,0.003134
3696.875,0.003922
3698.438,0.003528
3700,0.003922
3701.563,0.00274
3703.125,0.003528
3704.688,0.002346
3706.25,0.003528
3707.813,0.003134
3709.375,0.002346
3710.938,0.003922
3712.5,0.003922
3714.063,0.003528
3715.625,0.003528
3717.188,0.004692
3718.75,0.007056
3720.313,0.003922
3721.875,0.009042
3723.438,0.010961
3725,0.009042
3726.563,0.007467
3728.125,0.004692
3729.688,0.004316
3731.25,0.004316
3732.813,0.003922
3734.375,0.003922
3735.938,0.005104
3737.5,0.003922
3739.063,0.003922
3740.625,0.00274
3742.188,0.003528
3743.75,0.004316
3745.313,0.009796
3746.875,0.012536
3748.438,0.023976
3750,0.024661
3751.563,0.018359
3753.125,0.008631
3754.688,0.003528
3756.25,0.004316
3757.813,0.004316
3759.375,0.004316
3760.938,0.005104
3762.5,0.005891
3764.063,0.004692
3765.625,0.003528
3767.188,0.003134
3768.75,0.003134
3770.313,0.003922
3771.875,0.004316
3773.438,0.007056
3775,0.010618
3776.563,0.008255
3778.125,0.006268
3779.688,0.003528
3781.25,0.003134
3782.813,0.003528
3784.375,0.002346
3785.938,0.003134
3787.5,0.00274
3789.063,0.003134
3790.625,0.002346
3792.188,0.002346
3793.75,0.00274
3795.313,0.003528
3796.875,0.003528
3798.438,0.004316
3800,0.00548
3801.563,0.00548
3803.125,0.005104
3804.688,0.003922
3806.25,0.007056
3807.813,0.009385
3809.375,0.007056
3810.938,0.004316
3812.5,0.002346
3814.063,0.00274
3815.625,0.003134
3817.188,0.005104
3818.75,0.003134
3820.313,0.003528
3821.875,0.004692
3823.438,0.007467
3825,0.006268
3826.563,0.004316
3828.125,0.004692
3829.688,0.003134
3831.25,0.00274
3832.813,0.003528
3834.375,0.003528
3835.938,0.003922
3837.5,0.004316
3839.063,0.003134
3840.625,0.002346
3842.188,0.00274
3843.75,0.003528
3845.313,0.003922
3846.875,0.003922
3848.438,0.003922
3850,0.003528
3851.563,0.00274
3853.125,0.005104
3854.688,0.004692
3856.25,0.009042
3857.813,0.009796
3859.375,0.008255
3860.938,0.006268
3862.5,0.00548
3864.063,0.005891
3865.625,0.009796
3867.188,0.013769
3868.75,0.008631
3870.313,0.004316
3871.875,0.003134
3873.438,0.003134
3875,0.00274
3876.563,0.003528
3878.125,0.003134
3879.688,0.003528
3881.25,0.004692
3882.813,0.005104
3884.375,0.004316
3885.938,0.002346
3887.5,0.00274
3889.063,0.003134
3890.625,0.002346
3892.188,0.003134
3893.75,0.003528
3895.313,0.003134
3896.875,0.003134
3898.438,0.00274
3900,0.002346
3901.563,0.003134
3903.125,0.003528
3904.688,0.003922
3906.25,0.003528
3907.813,0.002346
3909.375,0.003528
3910.938,0.003528
3912.5,0.00274
3914.063,0.003922
3915.625,0.003922
3917.188,0.003528
3918.75,0.003922
3920.313,0.003922
3921.875,0.001567
3923.438,0.001173
3925,0.002346
3926.563,0.002346
3928.125,0.00274
3929.688,0.003134
3931.25,0.005104
3932.813,0.006268
3934.375,0.003528
3935.938,0.003528
3937.5,0.003528
3939.063,0.003134
3940.625,0.00274
3942.188,0.002346
3943.75,0.00274
3945.313,0.001567
3946.875,0.00274
3948.438,0.003134
3950,0.00274
3951.563,0.00548
3953.125,0.007056
3954.688,0.006268
3956.25,0.004316
3957.813,0.00274
3959.375,0.003134
3960.938,0.006268
3962.5,0.007467
3964.063,0.005104
3965.625,0.00274
3967.188,0.00274
3968.75,0.00274
3970.313,0.003134
3971.875,0.004316
3973.438,0.004316
3975,0.003528
3976.563,0.003134
3978.125,0.003528
3979.688,0.002346
3981.25,0.002346
3982.813,0.002346
3984.375,0.003528
3985.938,0.005104
3987.5,0.00548
3989.063,0.005104
3990.625,0.004692
3992.188,0.003134
3993.75,0.003922
3995.313,0.003528
3996.875,0.003134
3998.438,0.00274
4000,0.002346
4001.563,0.003134
4003.125,0.002346
4004.688,0.003528
4006.25,0.003528
4007.813,0.003134
4009.375,0.003922
4010.938,0.002346
4012.5,0.002346
4014.063,0.003134
4015.625,0.002346
4017.188,0.001961
4018.75,0.002346
4020.313,0.00274
4021.875,0.003922
4023.438,0.002346
4025,0.003528
4026.563,0.003134
4028.125,0.003134
4029.688,0.003134
4031.25,0.002346
4032.813,0.003922
4034.375,0.007844
4035.938,0.008631
4037.5,0.008255
4039.063,0.006268
4040.625,0.003922
4042.188,0.003922
4043.75,0.003922
4045.313,0.005104
4046.875,0.004316
4048.438,0.004316
4050,0.003528
4051.563,0.00274
4053.125,0.003134
4054.688,0.003528
4056.25,0.004692
4057.813,0.007056
4059.375,0.008255
4060.938,0.013358
4062.5,0.012194
4064.063,0.010207
4065.625,0.005891
4067.188,0.003134
4068.75,0.003134
4070.313,0.002346
4071.875,0.003528
4073.438,0.003922
4075,0.003528
4076.563,0.001961
4078.125,0.002346
4079.688,0.002346
4081.25,0.00274
4082.813,0.003528
4084.375,0.003134
4085.938,0.003528
4087.5,0.004316
4089.063,0.003134
4090.625,0.003528
4092.188,0.002346
4093.75,0.00274
4095.313,0.002346
4096.875,0.002346
4098.438,0.002346
4100,0.00274
4101.563,0.003922
4103.125,0.003134
4104.688,0.003134
4106.25,0.003528
4107.813,0.003134
4109.375,0.003528
4110.938,0.003134
4112.5,0.00274
4114.063,0.002346
4115.625,0.003134
4117.188,0.003134
4118.75,0.00274
4120.313,0.00274
4121.875,0.00274
4123.438,0.00274
4125,0.00274
4126.563,0.00274
4128.125,0.00274
4129.688,0.003134
4131.25,0.00274
4132.813,0.003134
4134.375,0.003528
4135.938,0.003134
4137.5,0.003528
4139.063,0.004316
4140.625,0.003134
4142.188,0.00274
4143.75,0.003134
4145.313,0.003528
4146.875,0.003134
4148.438,0.00274
4150,0.003528
4151.563,0.003922
4153.125,0.004692
4154.688,0.003134
4156.25,0.003528
4157.813,0.003922
4159.375,0.00274
4160.938,0.001961
4162.5,0.002346
4164.063,0.002346
4165.625,0.002346
4167.188,0.003134
4168.75,0.00274
4170.313,0.002346
4171.875,0.00274
4173.438,0.003134
4175,0.003134
4176.563,0.00274
4178.125,0.003528
4179.688,0.003528
4181.25,0.001961
4182.813,0.00274
4184.375,0.002346
4185.938,0.00274
4187.5,0.002346
4189.063,0.001961
4190.625,0.002346
4192.188,0.002346
4193.75,0.003134
4195.313,0.003922
4196.875,0.003528
4198.438,0.002346
4200,0.003134
4201.563,0.003528
4203.125,0.003528
4204.688,0.003134
4206.25,0.003922
4207.813,0.003528
4209.375,0.004316
4210.938,0.00274
4212.5,0.003922
4214.063,0.003922
4215.625,0.003528
4217.188,0.004316
4218.75,0.003922
4220.313,0.00274
4221.875,0.00274
4223.438,0.00274
4225,0.004316
4226.563,0.003922
4228.125,0.004316
4229.688,0.004692
4231.25,0.00548
4232.813,0.005104
4234.375,0.003134
4235.938,0.003528
4237.5,0.003922
4239.063,0.003528
4240.625,0.004692
4242.188,0.007844
4243.75,0.010207
4245.313,0.008631
4246.875,0.006679
4248.438,0.003922
4250,0.00548
4251.563,0.007844
4253.125,0.012194
4254.688,0.010207
4256.25,0.00548
4257.813,0.004692
4259.375,0.004316
4260.938,0.002346
4262.5,0.003922
4264.063,0.003528
4265.625,0.003134
4267.188,0.003528
4268.75,0.003528
4270.313,0.003922
4271.875,0.003528
4273.438,0.004316
4275,0.005891
4276.563,0.004692
4278.125,0.00274
4279.688,0.003528
4281.25,0.003134
4282.813,0.005104
4284.375,0.005104
4285.938,0.00548
4287.5,0.004692
4289.063,0.003528
4290.625,0.002346
4292.188,0.003922
4293.75,0.003528
4295.313,0.003922
4296.875,0.004692
4298.438,0.00548
4300,0.005104
4301.563,0.006268
4303.125,0.005104
4304.688,0.004316
4306.25,0.003922
4307.813,0.003922
4309.375,0.00274
4310.938,0.003134
4312.5,0.003528
4314.063,0.003922
4315.625,0.003528
4317.188,0.004316
4318.75,0.005891
4320.313,0.004316
4321.875,0.003134
4323.438,0.003922
4325,0.006268
4326.563,0.006268
4328.125,0.004692
4329.688,0.004316
4331.25,0.003528
4332.813,0.003528
4334.375,0.004316
4335.938,0.004316
4337.5,0.007467
4339.063,0.012194
4340.625,0.012194
4342.188,0.009385
4343.75,0.007056
4345.313,0.006679
4346.875,0.00548
4348.438,0.007844
4350,0.011372
4351.563,0.009042
4353.125,0.005891
4354.688,0.004692
4356.25,0.003528
4357.813,0.00274
4359.375,0.003528
4360.938,0.003528
4362.5,0.004316
4364.063,0.003134
4365.625,0.00274
4367.188,0.003134
4368.75,0.00274
4370.313,0.003528
4371.875,0.005891
4373.438,0.009385
4375,0.007056
4376.563,0.006268
4378.125,0.00548
4379.688,0.004692
4381.25,0.003922
4382.813,0.003528
4384.375,0.00274
4385.938,0.001567
4387.5,0.00274
4389.063,0.003922
4390.625,0.003922
4392.188,0.003528
4393.75,0.005104
4395.313,0.004692
4396.875,0.003922
4398.438,0.003922
4400,0.003528
4401.563,0.003922
4403.125,0.004692
4404.688,0.00274
4406.25,0.00274
4407.813,0.004692
4409.375,0.003922
4410.938,0.002346
4412.5,0.003134
4414.063,0.003528
4415.625,0.003528
4417.188,0.003922
4418.75,0.004316
4420.313,0.00274
4421.875,0.003528
4423.438,0.005104
4425,0.004316
4426.563,0.003528
4428.125,0.002346
4429.688,0.003134
4431.25,0.004316
4432.813,0.003528
4434.375,0.00548
4435.938,0.004316
4437.5,0.003134
4439.063,0.005104
4440.625,0.003528
4442.188,0.00274
4443.75,0.003922
4445.313,0.004692
4446.875,0.006268
4448.438,0.004692
4450,0.004692
4451.563,0.004692
4453.125,0.003134
4454.688,0.00274
4456.25,0.004316
4457.813,0.003134
4459.375,0.00274
4460.938,0.002346
4462.5,0.003922
4464.063,0.003922
4465.625,0.003922
4467.188,0.003134
4468.75,0.002346
4470.313,0.00274
4471.875,0.004316
4473.438,0.00548
4475,0.003922
4476.563,0.003134
4478.125,0.001961
4479.688,0.001567
4481.25,0.00274
4482.813,0.003922
4484.375,0.003134
4485.938,0.00274
4487.5,0.002346
4489.063,0.003134
4490.625,0.003922
4492.188,0.003922
4493.75,0.003922
4495.313,0.004692
4496.875,0.003528
4498.438,0.00274
4500,0.003528
4501.563,0.004316
4503.125,0.002346
4504.688,0.002346
4506.25,0.003134
4507.813,0.003134
4509.375,0.002346
4510.938,0.00274
4512.5,0.00274
4514.063,0.003528
4515.625,0.003528
4517.188,0.00274
4518.75,0.00274
4520.313,0.003528
4521.875,0.003528
4523.438,0.003528
4525,0.003528
4526.563,0.00274
4528.125,0.002346
4529.688,0.002346
4531.25,0.002346
4532.813,0.002346
4534.375,0.001961
4535.938,0.003528
4537.5,0.003134
4539.063,0.003134
4540.625,0.003134
4542.188,0.003528
4543.75,0.003134
4545.313,0.00274
4546.875,0.002346
4548.438,0.001961
4550,0.001961
4551.563,0.00274
4553.125,0.00274
4554.688,0.001173
4556.25,0.002346
4557.813,0.003134
4559.375,0.003528
4560.938,0.001961
4562.5,0.002346
4564.063,0.002346
4565.625,0.002346
4567.188,0.00274
4568.75,0.002346
4570.313,0.001961
4571.875,0.00274
4573.438,0.003134
4575,0.00274
4576.563,0.00274
4578.125,0.00274
4579.688,0.003134
4581.25,0.005104
4582.813,0.004692
4584.375,0.003134
4585.938,0.001961
4587.5,0.001961
4589.063,0.002346
4590.625,0.001961
4592.188,0.001961
4593.75,0.00274
4595.313,0.003134
4596.875,0.003528
4598.438,0.003134
4600,0.002346
4601.563,0.002346
4603.125,0.001961
4604.688,0.002346
4606.25,0.002346
4607.813,0.002346
4609.375,0.003134
4610.938,0.003134
4612.5,0.003134
4614.063,0.00274
4615.625,0.001961
4617.188,0.001961
4618.75,0.001567
4620.313,0.001961
4621.875,0.00274
4623.438,0.002346
4625,0.00274
4626.563,0.00274
4628.125,0.001961
4629.688,0.002346
4631.25,0.003134
4632.813,0.003922
4634.375,0.002346
4635.938,0.002346
4637.5,0.001961
4639.063,0.003134
4640.625,0.004316
4642.188,0.003134
4643.75,0.00274
4645.313,0.001961
4646.875,0.001567
4648.438,0.001567
4650,0.00274
4651.563,0.002346
4653.125,0.002346
4654.688,0.001961
4656.25,0.003922
4657.813,0.003922
4659.375,0.005104
4660.938,0.006679
4662.5,0.005891
4664.063,0.004316
4665.625,0.003134
4667.188,0.003528
4668.75,0.004316
4670.313,0.003922
4671.875,0.003134
4673.438,0.003922
4675,0.001961
4676.563,0.001961
4678.125,0.002346
4679.688,0.003528
4681.25,0.003922
4682.813,0.007056
4684.375,0.008255
4685.938,0.012194
4687.5,0.010618
4689.063,0.010207
4690.625,0.007056
4692.188,0.004316
4693.75,0.002346
4695.313,0.002346
4696.875,0.002346
4698.438,0.003134
4700,0.003528
4701.563,0.00274
4703.125,0.002346
4704.688,0.002346
4706.25,0.002346
4707.813,0.003528
4709.375,0.003528
4710.938,0.003922
4712.5,0.004692
4714.063,0.003922
4715.625,0.004692
4717.188,0.003134
4718.75,0.00274
4720.313,0.001961
4721.875,0.001961
4723.438,0.001961
4725,0.002346
4726.563,0.00274
4728.125,0.001961
4729.688,0.001961
4731.25,0.002346
4732.813,0.003134
4734.375,0.004316
4735.938,0.005104
4737.5,0.004316
4739.063,0.00274
4740.625,0.002346
4742.188,0.001961
4743.75,0.002346
4745.313,0.003922
4746.875,0.00274
4748.438,0.00274
4750,0.002346
4751.563,0.002346
4753.125,0.001961
4754.688,0.001961
4756.25,0.001961
4757.813,0.001567
4759.375,0.003922
4760.938,0.003922
4762.5,0.003134
4764.063,0.004316
4765.625,0.003528
4767.188,0.001961
4768.75,0.001961
4770.313,0.001961
4771.875,0.002346
4773.438,0.001961
4775,0.002346
4776.563,0.00274
4778.125,0.00274
4779.688,0.001961
4781.25,0.00274
4782.813,0.00274
4784.375,0.001961
4785.938,0.00274
4787.5,0.001961
4789.063,0.002346
4790.625,0.002346
4792.188,0.002346
4793.75,0.003528
4795.313,0.002346
4796.875,0.001961
4798.438,0.00274
4800,0.001567
4801.563,0.001567
4803.125,0.001961
4804.688,0.001173
4806.25,0.001961
4807.813,0.00274
4809.375,0.002346
4810.938,0.001961
4812.5,0.001961
4814.063,0.001567
4815.625,0.00274
4817.188,0.001961
4818.75,0.002346
4820.313,0.002346
4821.875,0.003134
4823.438,0.001961
4825,0.001961
4826.563,0.001961
4828.125,0.003134
4829.688,0.002346
4831.25,0.002346
4832.813,0.002346
4834.375,0.001567
4835.938,0.002346
4837.5,0.00274
4839.063,0.001567
4840.625,0.001961
4842.188,0.003134
4843.75,0.00274
4845.313,0.002346
4846.875,0.001961
4848.438,0.001567
4850,0.002346
4851.563,0.003134
4853.125,0.00274
4854.688,0.001961
4856.25,0.001567
4857.813,0.001567
4859.375,0.001961
4860.938,0.00274
4862.5,0.002346
4864.063,0.001961
4865.625,0.00274
4867.188,0.002346
4868.75,0.002346
4870.313,0.002346
4871.875,0.003134
4873.438,0.002346
4875,0.002346
4876.563,0.002346
4878.125,0.002346
4879.688,0.002346
4881.25,0.001961
4882.813,0.002346
4884.375,0.00274
4885.938,0.00274
4887.5,0.00274
4889.063,0.00274
4890.625,0.002346
4892.188,0.001961
4893.75,0.001961
4895.313,0.001961
4896.875,0.001961
4898.438,0.001961
4900,0.001567
4901.563,0.001567
4903.125,0.001567
4904.688,0.001567
4906.25,0.00274
4907.813,0.00274
4909.375,0.002346
4910.938,0.002346
4912.5,0.002346
4914.063,0.001567
4915.625,0.001961
4917.188,0.001961
4918.75,0.001567
4920.313,0.001567
4921.875,0.001567
4923.438,0.002346
4925,0.00274
4926.563,0.001961
4928.125,0.002346
4929.688,0.001961
4931.25,0.001961
4932.813,0.002346
4934.375,0.002346
4935.938,0.00274
4937.5,0.002346
4939.063,0.002346
4940.625,0.003134
4942.188,0.002346
4943.75,0.002346
4945.313,0.002346
4946.875,0.003134
4948.438,0.00274
4950,0.002346
4951.563,0.002346
4953.125,0.00274
4954.688,0.001173
4956.25,0.001567
4957.813,0.001961
4959.375,0.002346
4960.938,0.00274
4962.5,0.003134
4964.063,0.003528
4965.625,0.003134
4967.188,0.003134
4968.75,0.003922
4970.313,0.004692
4971.875,0.007467
4973.438,0.007467
4975,0.005891
4976.563,0.006679
4978.125,0.003922
4979.688,0.003528
4981.25,0.003922
4982.813,0.00274
4984.375,0.003922
4985.938,0.004692
4987.5,0.003134
4989.063,0.003528
4990.625,0.003134
4992.188,0.001961
4993.75,0.003528
4995.313,0.006268
4996.875,0.008631
4998.438,0.012194