"Frecuencia(Hz)		",mm/Seg(PC)
3.125,0.697092
4.6875,0.65325
6.25,0.762856
7.8125,0.596255
9.375,0.523915
10.9375,0.510763
12.5,0.440615
14.0625,1.096057
15.625,1.657238
17.1875,0.771624
18.75,0.357315
20.3125,0.284975
21.875,0.234556
23.4375,0.232364
25,0.257573
26.5625,0.266342
28.125,0.195098
29.6875,0.190714
31.25,0.192906
32.8125,0.236748
34.375,0.207155
35.9375,0.133171
37.5,0.230172
39.0625,0.133171
40.625,0.139199
42.1875,0.10577
43.75,0.118374
45.3125,0.149064
46.875,0.982067
48.4375,4.664819
50,4.629745
51.5625,0.946993
53.125,0.149064
54.6875,0.095357
56.25,0.098645
57.8125,0.110154
59.375,0.163313
60.9375,0.07234
62.5,0.149064
64.0625,0.298128
65.625,0.224692
67.1875,0.098645
68.75,0.063297
70.3125,0.063845
71.875,0.082752
73.4375,0.063297
75,0.055077
76.5625,0.0696
78.125,0.08056
79.6875,0.127691
81.25,0.220307
82.8125,0.132075
84.375,0.055077
85.9375,0.04713
87.5,0.055625
89.0625,0.052885
90.625,0.076724
92.1875,0.055077
93.75,0.070696
95.3125,0.473497
96.875,0.846156
98.4375,0.390196
100,0.075628
101.5625,0.064393
103.125,0.048775
104.6875,0.035622
106.25,0.044664
107.8125,0.044664
109.375,0.064393
110.9375,0.093165
112.5,0.112346
114.0625,0.067134
115.625,0.055625
117.1875,0.051241
118.75,0.052337
120.3125,0.044664
121.875,0.034526
123.4375,0.046034
125,0.053981
126.5625,0.04028
128.125,0.054529
129.6875,0.066585
131.25,0.051241
132.8125,0.03891
134.375,0.044664
135.9375,0.028771
137.5,0.033841
139.0625,0.026168
140.625,0.034252
142.1875,0.046582
143.75,0.081656
145.3125,0.057543
146.875,0.030142
148.4375,0.044664
150,0.04302
151.5625,0.02932
153.125,0.025894
154.6875,0.036444
156.25,0.04302
157.8125,0.053981
159.375,0.051789
160.9375,0.071244
162.5,0.065489
164.0625,0.082752
165.625,0.075628
167.1875,0.064941
168.75,0.081656
170.3125,0.095357
171.875,0.097549
173.4375,0.126595
175,0.184138
176.5625,0.195098
178.125,0.157832
179.6875,0.140295
181.25,0.084944
182.8125,0.048227
184.375,0.066037
185.9375,0.053981
187.5,0.061927
189.0625,0.045486
190.625,0.056995
192.1875,0.199482
193.75,0.31128
195.3125,0.15564
196.875,0.112346
198.4375,0.117278
200,0.190714
201.5625,0.090973
203.125,0.024935
204.6875,0.026168
206.25,0.026442
207.8125,0.046034
209.375,0.04028
210.9375,0.027538
212.5,0.02699
214.0625,0.033841
215.625,0.043568
217.1875,0.02699
218.75,0.023839
220.3125,0.029868
221.875,0.04713
223.4375,0.053433
225,0.033019
226.5625,0.027812
228.125,0.024113
229.6875,0.031649
231.25,0.044116
232.8125,0.023839
234.375,0.031649
235.9375,0.027812
237.5,0.066037
239.0625,0.068504
240.625,0.035622
242.1875,0.033293
243.75,0.084944
245.3125,0.2225
246.875,0.255381
248.4375,0.125499
250,0.050419
251.5625,0.027538
253.125,0.033841
254.6875,0.044116
256.25,0.063297
257.8125,0.081656
259.375,0.107962
260.9375,0.087137
262.5,0.08056
264.0625,0.068504
265.625,0.063297
267.1875,0.058091
268.75,0.049323
270.3125,0.059735
271.875,0.071792
273.4375,0.069052
275,0.073436
276.5625,0.046582
278.125,0.032745
279.6875,0.027264
281.25,0.017263
282.8125,0.022058
284.375,0.023017
285.9375,0.028497
287.5,0.033293
289.0625,0.145776
290.625,0.2225
292.1875,0.112346
293.75,0.037266
295.3125,0.061379
296.875,0.058639
298.4375,0.052885
300,0.087137
301.5625,0.055625
303.125,0.020688
304.6875,0.034526
306.25,0.041924
307.8125,0.029868
309.375,0.028771
310.9375,0.115086
312.5,0.282783
314.0625,0.181945
315.625,0.02699
317.1875,0.016372
318.75,0.019729
320.3125,0.025209
321.875,0.031375
323.4375,0.027812
325,0.016646
326.5625,0.018085
328.125,0.028771
329.6875,0.02014
331.25,0.022058
332.8125,0.023017
334.375,0.020688
335.9375,0.0348
337.5,0.071244
339.0625,0.055077
340.625,0.030142
342.1875,0.025894
343.75,0.035348
345.3125,0.04302
346.875,0.027538
348.4375,0.013495
350,0.020688
351.5625,0.019729
353.125,0.022332
354.6875,0.04713
356.25,0.027538
357.8125,0.023839
359.375,0.028771
360.9375,0.023839
362.5,0.017263
364.0625,0.02151
365.625,0.024935
367.1875,0.02932
368.75,0.031923
370.3125,0.03617
371.875,0.043568
373.4375,0.038362
375,0.023839
376.5625,0.037266
378.125,0.028771
379.6875,0.02699
381.25,0.02932
382.8125,0.038362
384.375,0.102481
385.9375,0.863693
387.5,1.166205
389.0625,0.398965
390.625,0.04713
392.1875,0.032745
393.75,0.024113
395.3125,0.020962
396.875,0.04302
398.4375,0.02932
400,0.049871
401.5625,0.055077
403.125,0.058639
404.6875,0.061927
406.25,0.053433
407.8125,0.032745
409.375,0.036444
410.9375,0.0348
412.5,0.03617
414.0625,0.037266
415.625,0.046582
417.1875,0.053981
418.75,0.15564
420.3125,0.143583
421.875,0.078916
423.4375,0.074532
425,0.066585
426.5625,0.07234
428.125,0.063845
429.6875,0.036718
431.25,0.057543
432.8125,0.064941
434.375,0.110154
435.9375,0.151256
437.5,0.103577
439.0625,0.060831
440.625,0.058091
442.1875,0.093165
443.75,0.068504
445.3125,0.053433
446.875,0.04302
448.4375,0.032471
450,0.084944
451.5625,0.153448
453.125,0.083848
454.6875,0.053981
456.25,0.067682
457.8125,0.064941
459.375,0.032745
460.9375,0.033293
462.5,0.031649
464.0625,0.046034
465.625,0.055625
467.1875,0.049323
468.75,0.043568
470.3125,0.035074
471.875,0.026716
473.4375,0.023839
475,0.032471
476.5625,0.061927
478.125,0.07234
479.6875,0.048227
481.25,0.055625
482.8125,0.326625
484.375,0.41431
485.9375,0.135363
487.5,0.021236
489.0625,0.018359
490.625,0.04028
492.1875,0.067134
493.75,0.032197
495.3125,0.025894
496.875,0.027812
498.4375,0.026716
500,0.041924
501.5625,0.054529
503.125,0.050419
504.6875,0.026442
506.25,0.023017
507.8125,0.012947
509.375,0.014386
510.9375,0.022332
512.5,0.020688
514.0625,0.027812
515.625,0.060283
517.1875,0.048227
518.75,0.015482
520.3125,0.019181
521.875,0.033019
523.4375,0.025209
525,0.026716
526.5625,0.018633
528.125,0.061927
529.6875,0.055625
531.25,0.027812
532.8125,0.027264
534.375,0.032471
535.9375,0.032471
537.5,0.023017
539.0625,0.028086
540.625,0.047678
542.1875,0.036444
543.75,0.028497
545.3125,0.028086
546.875,0.031375
548.4375,0.046034
550,0.031375
551.5625,0.024935
553.125,0.033841
554.6875,0.024935
556.25,0.033293
557.8125,0.037266
559.375,0.053433
560.9375,0.104673
562.5,0.074532
564.0625,0.036444
565.625,0.044116
567.1875,0.032745
568.75,0.04302
570.3125,0.039458
571.875,0.044116
573.4375,0.056173
575,0.08056
576.5625,0.118374
578.125,0.135363
579.6875,0.506378
581.25,0.587487
582.8125,0.207155
584.375,0.094261
585.9375,0.083848
587.5,0.087137
589.0625,0.137007
590.625,0.188522
592.1875,0.096453
593.75,0.137007
595.3125,0.195098
596.875,0.153448
598.4375,0.140295
600,0.121662
601.5625,0.117278
603.125,0.126595
604.6875,0.078916
606.25,0.064393
607.8125,0.061927
609.375,0.047678
610.9375,0.055077
612.5,0.066585
614.0625,0.052885
615.625,0.052337
617.1875,0.066585
618.75,0.064941
620.3125,0.041376
621.875,0.11125
623.4375,0.464728
625,1.508175
626.5625,1.174973
628.125,0.215923
629.6875,0.126595
631.25,0.137007
632.8125,0.178657
634.375,0.110154
635.9375,0.068504
637.5,0.096453
639.0625,0.276206
640.625,0.241133
642.1875,0.072888
643.75,0.053981
645.3125,0.095357
646.875,0.067134
648.4375,0.062749
650,0.11399
651.5625,0.178657
653.125,0.116182
654.6875,0.103577
656.25,0.100837
657.8125,0.107962
659.375,0.115086
660.9375,0.083848
662.5,0.075628
664.0625,0.097549
665.625,0.058639
667.1875,0.02932
668.75,0.034252
670.3125,0.051789
671.875,0.046582
673.4375,0.070148
675,0.070696
676.5625,0.157832
678.125,0.157832
679.6875,0.04028
681.25,0.054529
682.8125,0.048227
684.375,0.03891
685.9375,0.054529
687.5,0.069052
689.0625,0.055625
690.625,0.083848
692.1875,0.058639
693.75,0.064393
695.3125,0.063297
696.875,0.046034
698.4375,0.118374
700,0.215923
701.5625,0.11399
703.125,0.092069
704.6875,0.092069
706.25,0.10577
707.8125,0.074532
709.375,0.066037
710.9375,0.049871
712.5,0.041376
714.0625,0.061927
715.625,0.076724
717.1875,0.043568
718.75,0.034526
720.3125,0.051789
721.875,0.062749
723.4375,0.060831
725,0.055077
726.5625,0.049323
728.125,0.050419
729.6875,0.052885
731.25,0.045486
732.8125,0.042472
734.375,0.043568
735.9375,0.051789
737.5,0.056173
739.0625,0.044664
740.625,0.071792
742.1875,0.070148
743.75,0.041376
745.3125,0.039458
746.875,0.028086
748.4375,0.022332
750,0.02699
751.5625,0.030416
753.125,0.036444
754.6875,0.04713
756.25,0.035622
757.8125,0.024935
759.375,0.038362
760.9375,0.033841
762.5,0.021784
764.0625,0.036444
765.625,0.034526
767.1875,0.044116
768.75,0.048227
770.3125,0.055625
771.875,0.075628
773.4375,0.372659
775,0.377044
776.5625,0.087137
778.125,0.051241
779.6875,0.03617
781.25,0.037814
782.8125,0.037266
784.375,0.04028
785.9375,0.03617
787.5,0.037266
789.0625,0.037814
790.625,0.056173
792.1875,0.059187
793.75,0.049323
795.3125,0.050419
796.875,0.055625
798.4375,0.046582
800,0.043568
801.5625,0.041924
803.125,0.063297
804.6875,0.045486
806.25,0.093165
807.8125,0.064393
809.375,0.041924
810.9375,0.045486
812.5,0.039458
814.0625,0.035622
815.625,0.037814
817.1875,0.043568
818.75,0.047678
820.3125,0.037814
821.875,0.042472
823.4375,0.055077
825,0.040828
826.5625,0.036718
828.125,0.034252
829.6875,0.038362
831.25,0.028086
832.8125,0.043568
834.375,0.045486
835.9375,0.060831
837.5,0.065489
839.0625,0.08604
840.625,0.065489
842.1875,0.07782
843.75,0.076724
845.3125,0.063845
846.875,0.046582
848.4375,0.055077
850,0.041924
851.5625,0.04302
853.125,0.04713
854.6875,0.053981
856.25,0.050419
857.8125,0.049323
859.375,0.026168
860.9375,0.02699
862.5,0.051241
864.0625,0.095357
865.625,0.065489
867.1875,0.045486
868.75,0.061379
870.3125,0.103577
871.875,0.084944
873.4375,0.035896
875,0.033019
876.5625,0.031375
878.125,0.033019
879.6875,0.02932
881.25,0.031375
882.8125,0.029046
884.375,0.035074
885.9375,0.07782
887.5,0.15564
889.0625,0.11125
890.625,0.042472
892.1875,0.016372
893.75,0.01692
895.3125,0.023291
896.875,0.015824
898.4375,0.024935
900,0.026716
901.5625,0.034526
903.125,0.034252
904.6875,0.022058
906.25,0.017811
907.8125,0.019181
909.375,0.012331
910.9375,0.010344
912.5,0.01692
914.0625,0.01692
915.625,0.013495
917.1875,0.027538
918.75,0.032197
920.3125,0.020414
921.875,0.021236
923.4375,0.023565
925,0.02014
926.5625,0.021236
928.125,0.021236
929.6875,0.019455
931.25,0.012947
932.8125,0.02562
934.375,0.035348
935.9375,0.037814
937.5,0.082752
939.0625,0.084944
940.625,0.037814
942.1875,0.02932
943.75,0.020688
945.3125,0.023291
946.875,0.027812
948.4375,0.04713
950,0.056995
951.5625,0.059735
953.125,0.063297
954.6875,0.059735
956.25,0.034252
957.8125,0.044116
959.375,0.029046
960.9375,0.025209
962.5,0.036444
964.0625,0.058091
965.625,0.060283
967.1875,0.051789
968.75,0.044664
970.3125,0.067134
971.875,0.058091
973.4375,0.032471
975,0.035348
976.5625,0.035896
978.125,0.036444
979.6875,0.031923
981.25,0.028497
982.8125,0.037814
984.375,0.04713
985.9375,0.053981
987.5,0.04713
989.0625,0.031375
990.625,0.030964
992.1875,0.016372
993.75,0.015482
995.3125,0.023565
996.875,0.028771
998.4375,0.032745
1000,0.048775
1001.563,0.040828
1003.125,0.042472
1004.688,0.034526
1006.25,0.033841
1007.813,0.026442
1009.375,0.030142
1010.938,0.16112
1012.5,0.322241
1014.063,0.174273
1015.625,0.048775
1017.188,0.030142
1018.75,0.035074
1020.313,0.035074
1021.875,0.021784
1023.438,0.018907
1025,0.017537
1026.563,0.024387
1028.125,0.01692
1029.688,0.015208
1031.25,0.027538
1032.813,0.041376
1034.375,0.032471
1035.938,0.018907
1037.5,0.014934
1039.063,0.012605
1040.625,0.012331
1042.188,0.011783
1043.75,0.01692
1045.313,0.024387
1046.875,0.026168
1048.438,0.025209
1050,0.02151
1051.563,0.018633
1053.125,0.019455
1054.688,0.020414
1056.25,0.019455
1057.813,0.017537
1059.375,0.024661
1060.938,0.027538
1062.5,0.02014
1064.063,0.033841
1065.625,0.02699
1067.188,0.026442
1068.75,0.025209
1070.313,0.028086
1071.875,0.018085
1073.438,0.023291
1075,0.02699
1076.563,0.038362
1078.125,0.029594
1079.688,0.028086
1081.25,0.048227
1082.813,0.056995
1084.375,0.038362
1085.938,0.054529
1087.5,0.055077
1089.063,0.0348
1090.625,0.052337
1092.188,0.03891
1093.75,0.02014
1095.313,0.020962
1096.875,0.030142
1098.438,0.029046
1100,0.022058
1101.563,0.066585
1103.125,0.071792
1104.688,0.021236
1106.25,0.023017
1107.813,0.01692
1109.375,0.026442
1110.938,0.047678
1112.5,0.056173
1114.063,0.032471
1115.625,0.018907
1117.188,0.016372
1118.75,0.018633
1120.313,0.011783
1121.875,0.014043
1123.438,0.018907
1125,0.019729
1126.563,0.02014
1128.125,0.013769
1129.688,0.016098
1131.25,0.021784
1132.813,0.017537
1134.375,0.019181
1135.938,0.017811
1137.5,0.017811
1139.063,0.015824
1140.625,0.016646
1142.188,0.024661
1143.75,0.022058
1145.313,0.022058
1146.875,0.02151
1148.438,0.015208
1150,0.017537
1151.563,0.023565
1153.125,0.018633
1154.688,0.014934
1156.25,0.019455
1157.813,0.02699
1159.375,0.049871
1160.938,0.112346
1162.5,0.078916
1164.063,0.026442
1165.625,0.018907
1167.188,0.02014
1168.75,0.023017
1170.313,0.021236
1171.875,0.019455
1173.438,0.018359
1175,0.024387
1176.563,0.068504
1178.125,0.066037
1179.688,0.026716
1181.25,0.02151
1182.813,0.02562
1184.375,0.026716
1185.938,0.012947
1187.5,0.019181
1189.063,0.01692
1190.625,0.020414
1192.188,0.032745
1193.75,0.037266
1195.313,0.023839
1196.875,0.024113
1198.438,0.011783
1200,0.017811
1201.563,0.016098
1203.125,0.019181
1204.688,0.02151
1206.25,0.025894
1207.813,0.018907
1209.375,0.041376
1210.938,0.042472
1212.5,0.024113
1214.063,0.02562
1215.625,0.012331
1217.188,0.021236
1218.75,0.020414
1220.313,0.014386
1221.875,0.019729
1223.438,0.027264
1225,0.054529
1226.563,0.04713
1228.125,0.028086
1229.688,0.02151
1231.25,0.028771
1232.813,0.025209
1234.375,0.032471
1235.938,0.049871
1237.5,0.04713
1239.063,0.048775
1240.625,0.071792
1242.188,0.0696
1243.75,0.043568
1245.313,0.038362
1246.875,0.055625
1248.438,0.104673
1250,0.35293
1251.563,0.423078
1253.125,0.16112
1254.688,0.100837
1256.25,0.276206
1257.813,0.574334
1259.375,0.357315
1260.938,0.098645
1262.5,0.038362
1264.063,0.053433
1265.625,0.053433
1267.188,0.053433
1268.75,0.040828
1270.313,0.053433
1271.875,0.060831
1273.438,0.103577
1275,0.120566
1276.563,0.087137
1278.125,0.084944
1279.688,0.060831
1281.25,0.041924
1282.813,0.040828
1284.375,0.041924
1285.938,0.037814
1287.5,0.041924
1289.063,0.074532
1290.625,0.106866
1292.188,0.056173
1293.75,0.03891
1295.313,0.037814
1296.875,0.023291
1298.438,0.029046
1300,0.03891
1301.563,0.087137
1303.125,0.118374
1304.688,0.07234
1306.25,0.090973
1307.813,0.07782
1309.375,0.056173
1310.938,0.032745
1312.5,0.067134
1314.063,0.066037
1315.625,0.054529
1317.188,0.051789
1318.75,0.059187
1320.313,0.070148
1321.875,0.074532
1323.438,0.128787
1325,0.26415
1326.563,0.195098
1328.125,0.31128
1329.688,0.232364
1331.25,0.068504
1332.813,0.051241
1334.375,0.035622
1335.938,0.056995
1337.5,0.074532
1339.063,0.078916
1340.625,0.097549
1342.188,0.070148
1343.75,0.04028
1345.313,0.051789
1346.875,0.04028
1348.438,0.031923
1350,0.043568
1351.563,0.075628
1353.125,0.084944
1354.688,0.053433
1356.25,0.049323
1357.813,0.051241
1359.375,0.047678
1360.938,0.049323
1362.5,0.03891
1364.063,0.058091
1365.625,0.064393
1367.188,0.055077
1368.75,0.049871
1370.313,0.051789
1371.875,0.041376
1373.438,0.060283
1375,0.060283
1376.563,0.098645
1378.125,0.109058
1379.688,0.039458
1381.25,0.017263
1382.813,0.04302
1384.375,0.051241
1385.938,0.050419
1387.5,0.040828
1389.063,0.043568
1390.625,0.046034
1392.188,0.039458
1393.75,0.038362
1395.313,0.034252
1396.875,0.039458
1398.438,0.055077
1400,0.072888
1401.563,0.110154
1403.125,0.112346
1404.688,0.058639
1406.25,0.050419
1407.813,0.044116
1409.375,0.032471
1410.938,0.035348
1412.5,0.059735
1414.063,0.082752
1415.625,0.096453
1417.188,0.045486
1418.75,0.024935
1420.313,0.033293
1421.875,0.040828
1423.438,0.031375
1425,0.037814
1426.563,0.070148
1428.125,0.058091
1429.688,0.0348
1431.25,0.024387
1432.813,0.025894
1434.375,0.038362
1435.938,0.040828
1437.5,0.046582
1439.063,0.044664
1440.625,0.055625
1442.188,0.044116
1443.75,0.033567
1445.313,0.041924
1446.875,0.075628
1448.438,0.097549
1450,0.284975
1451.563,0.477881
1453.125,0.250997
1454.688,0.053981
1456.25,0.051789
1457.813,0.046582
1459.375,0.038362
1460.938,0.028771
1462.5,0.066585
1464.063,0.08604
1465.625,0.047678
1467.188,0.049323
1468.75,0.042472
1470.313,0.033019
1471.875,0.02562
1473.438,0.043568
1475,0.052337
1476.563,0.066037
1478.125,0.055625
1479.688,0.032197
1481.25,0.035622
1482.813,0.083848
1484.375,0.090973
1485.938,0.083848
1487.5,0.133171
1489.063,0.289359
1490.625,0.2225
1492.188,0.083848
1493.75,0.045486
1495.313,0.051789
1496.875,0.048227
1498.438,0.058639
1500,0.18633
1501.563,0.18633
1503.125,0.046582
1504.688,0.030964
1506.25,0.03891
1507.813,0.035622
1509.375,0.035074
1510.938,0.083848
1512.5,0.095357
1514.063,0.063297
1515.625,0.106866
1517.188,0.084944
1518.75,0.051789
1520.313,0.058091
1521.875,0.059187
1523.438,0.059735
1525,0.071244
1526.563,0.069052
1528.125,0.058091
1529.688,0.074532
1531.25,0.060831
1532.813,0.074532
1534.375,0.11399
1535.938,0.157832
1537.5,0.232364
1539.063,0.157832
1540.625,0.172081
1542.188,0.211539
1543.75,0.143583
1545.313,0.2225
1546.875,1.039062
1548.438,1.674775
1550,0.889998
1551.563,0.201675
1553.125,0.117278
1554.688,0.056173
1556.25,0.081656
1557.813,0.090973
1559.375,0.165505
1560.938,0.357315
1562.5,1.227584
1564.063,1.823839
1565.625,0.872461
1567.188,0.255381
1568.75,0.10577
1570.313,0.106866
1571.875,0.076724
1573.438,0.204963
1575,0.276206
1576.563,0.138103
1578.125,0.104673
1579.688,0.140295
1581.25,0.146872
1582.813,0.070696
1584.375,0.063297
1585.938,0.093165
1587.5,0.096453
1589.063,0.274014
1590.625,0.26415
1592.188,0.109058
1593.75,0.070696
1595.313,0.082752
1596.875,0.098645
1598.438,0.095357
1600,0.078916
1601.563,0.083848
1603.125,0.08604
1604.688,0.078916
1606.25,0.094261
1607.813,0.058639
1609.375,0.070148
1610.938,0.121662
1612.5,0.234556
1614.063,0.181945
1615.625,0.192906
1617.188,0.153448
1618.75,0.098645
1620.313,0.064393
1621.875,0.048775
1623.438,0.067134
1625,0.078916
1626.563,0.08056
1628.125,0.15564
1629.688,0.135363
1631.25,0.095357
1632.813,0.039458
1634.375,0.067682
1635.938,0.153448
1637.5,0.377044
1639.063,0.357315
1640.625,0.157832
1642.188,0.092069
1643.75,0.385812
1645.313,0.613792
1646.875,0.282783
1648.438,0.082752
1650,0.088233
1651.563,0.060283
1653.125,0.107962
1654.688,0.094261
1656.25,0.056995
1657.813,0.045486
1659.375,0.070148
1660.938,0.135363
1662.5,0.11947
1664.063,0.07782
1665.625,0.059187
1667.188,0.050419
1668.75,0.051241
1670.313,0.066585
1671.875,0.151256
1673.438,0.178657
1675,0.087137
1676.563,0.068504
1678.125,0.064941
1679.688,0.053981
1681.25,0.059735
1682.813,0.056173
1684.375,0.056173
1685.938,0.047678
1687.5,0.029868
1689.063,0.039458
1690.625,0.055625
1692.188,0.137007
1693.75,0.163313
1695.313,0.094261
1696.875,0.039458
1698.438,0.04713
1700,0.038362
1701.563,0.031649
1703.125,0.044116
1704.688,0.044116
1706.25,0.043568
1707.813,0.033567
1709.375,0.048227
1710.938,0.067682
1712.5,0.115086
1714.063,0.064393
1715.625,0.037266
1717.188,0.035348
1718.75,0.032471
1720.313,0.04302
1721.875,0.074532
1723.438,0.063845
1725,0.032197
1726.563,0.022332
1728.125,0.029868
1729.688,0.031649
1731.25,0.035622
1732.813,0.058639
1734.375,0.046582
1735.938,0.047678
1737.5,0.048227
1739.063,0.052337
1740.625,0.100837
1742.188,0.129883
1743.75,0.076724
1745.313,0.041924
1746.875,0.035074
1748.438,0.036444
1750,0.037266
1751.563,0.049871
1753.125,0.039458
1754.688,0.035896
1756.25,0.054529
1757.813,0.055077
1759.375,0.029868
1760.938,0.020414
1762.5,0.030416
1764.063,0.03891
1765.625,0.047678
1767.188,0.04302
1768.75,0.059735
1770.313,0.089329
1771.875,0.098645
1773.438,0.063297
1775,0.041924
1776.563,0.045486
1778.125,0.058639
1779.688,0.032197
1781.25,0.032197
1782.813,0.041924
1784.375,0.043568
1785.938,0.071244
1787.5,0.074532
1789.063,0.042472
1790.625,0.106866
1792.188,0.109058
1793.75,0.050419
1795.313,0.042472
1796.875,0.057543
1798.438,0.046582
1800,0.033293
1801.563,0.041924
1803.125,0.058091
1804.688,0.041924
1806.25,0.021236
1807.813,0.037814
1809.375,0.044664
1810.938,0.030964
1812.5,0.029046
1814.063,0.04028
1815.625,0.058091
1817.188,0.053433
1818.75,0.059187
1820.313,0.084944
1821.875,0.071792
1823.438,0.043568
1825,0.054529
1826.563,0.055625
1828.125,0.053981
1829.688,0.051789
1831.25,0.051241
1832.813,0.083848
1834.375,0.100837
1835.938,0.067682
1837.5,0.100837
1839.063,0.126595
1840.625,0.066585
1842.188,0.052885
1843.75,0.061379
1845.313,0.036444
1846.875,0.044116
1848.438,0.064393
1850,0.112346
1851.563,0.107962
1853.125,0.067134
1854.688,0.08056
1856.25,0.062749
1857.813,0.040828
1859.375,0.039458
1860.938,0.082752
1862.5,0.074532
1864.063,0.058091
1865.625,0.048775
1867.188,0.041376
1868.75,0.07782
1870.313,0.074532
1871.875,0.084944
1873.438,0.190714
1875,0.440615
1876.563,0.789161
1878.125,0.469112
1879.688,0.157832
1881.25,0.061379
1882.813,0.037266
1884.375,0.04713
1885.938,0.093165
1887.5,0.061379
1889.063,0.049871
1890.625,0.045486
1892.188,0.0348
1893.75,0.033293
1895.313,0.034526
1896.875,0.026716
1898.438,0.031923
1900,0.045486
1901.563,0.094261
1903.125,0.116182
1904.688,0.052885
1906.25,0.038362
1907.813,0.032197
1909.375,0.031375
1910.938,0.025894
1912.5,0.029868
1914.063,0.035348
1915.625,0.026716
1917.188,0.028497
1918.75,0.037814
1920.313,0.031375
1921.875,0.033293
1923.438,0.041376
1925,0.063297
1926.563,0.066585
1928.125,0.134267
1929.688,0.153448
1931.25,0.067682
1932.813,0.132075
1934.375,0.409925
1935.938,0.515147
1937.5,0.211539
1939.063,0.049323
1940.625,0.032197
1942.188,0.035622
1943.75,0.024113
1945.313,0.022743
1946.875,0.044664
1948.438,0.074532
1950,0.192906
1951.563,0.209347
1953.125,0.083848
1954.688,0.027812
1956.25,0.023839
1957.813,0.013769
1959.375,0.010344
1960.938,0.019729
1962.5,0.026716
1964.063,0.020962
1965.625,0.019729
1967.188,0.03617
1968.75,0.049871
1970.313,0.043568
1971.875,0.020688
1973.438,0.015208
1975,0.015482
1976.563,0.023839
1978.125,0.020688
1979.688,0.013769
1981.25,0.01692
1982.813,0.014386
1984.375,0.02151
1985.938,0.015824
1987.5,0.012947
1989.063,0.013769
1990.625,0.014386
1992.188,0.014386
1993.75,0.013221
1995.313,0.015824
1996.875,0.014934
1998.438,0.017811
2000,0.01692
2001.563,0.020414
2003.125,0.024113
2004.688,0.016098
2006.25,0.020962
2007.813,0.016098
2009.375,0.021784
2010.938,0.017263
2012.5,0.017811
2014.063,0.021236
2015.625,0.02699
2017.188,0.025209
2018.75,0.025894
2020.313,0.023291
2021.875,0.01692
2023.438,0.02151
2025,0.02699
2026.563,0.022058
2028.125,0.01466
2029.688,0.016098
2031.25,0.021236
2032.813,0.020688
2034.375,0.018085
2035.938,0.012947
2037.5,0.009453
2039.063,0.009453
2040.625,0.02014
2042.188,0.017811
2043.75,0.017263
2045.313,0.017537
2046.875,0.022743
2048.438,0.022743
2050,0.012057
2051.563,0.011166
2053.125,0.008631
2054.688,0.009179
2056.25,0.011509
2057.813,0.011166
2059.375,0.009179
2060.938,0.010344
2062.5,0.015824
2064.063,0.016372
2065.625,0.013769
2067.188,0.017263
2068.75,0.016098
2070.313,0.011509
2071.875,0.007741
2073.438,0.01007
2075,0.01007
2076.563,0.015482
2078.125,0.013495
2079.688,0.013769
2081.25,0.014386
2082.813,0.016098
2084.375,0.014934
2085.938,0.011509
2087.5,0.01466
2089.063,0.017263
2090.625,0.013221
2092.188,0.016646
2093.75,0.013221
2095.313,0.010892
2096.875,0.007467
2098.438,0.008631
2100,0.012605
2101.563,0.014043
2103.125,0.008631
2104.688,0.008323
2106.25,0.009728
2107.813,0.012331
2109.375,0.01007
2110.938,0.007193
2112.5,0.007193
2114.063,0.024661
2115.625,0.029046
2117.188,0.018633
2118.75,0.013221
2120.313,0.014386
2121.875,0.012331
2123.438,0.016372
2125,0.014386
2126.563,0.015482
2128.125,0.034526
2129.688,0.041376
2131.25,0.024387
2132.813,0.01007
2134.375,0.008631
2135.938,0.009728
2137.5,0.009728
2139.063,0.009728
2140.625,0.009453
2142.188,0.006885
2143.75,0.010344
2145.313,0.014043
2146.875,0.012947
2148.438,0.014386
2150,0.013221
2151.563,0.015482
2153.125,0.012331
2154.688,0.008323
2156.25,0.008049
2157.813,0.009728
2159.375,0.006611
2160.938,0.009728
2162.5,0.017263
2164.063,0.018085
2165.625,0.012057
2167.188,0.009728
2168.75,0.009179
2170.313,0.011166
2171.875,0.018085
2173.438,0.036444
2175,0.030964
2176.563,0.02014
2178.125,0.019729
2179.688,0.009728
2181.25,0.010344
2182.813,0.011166
2184.375,0.01466
2185.938,0.03069
2187.5,0.048227
2189.063,0.082752
2190.625,0.061927
2192.188,0.027264
2193.75,0.017537
2195.313,0.015824
2196.875,0.014934
2198.438,0.014043
2200,0.011783
2201.563,0.006611
2203.125,0.012057
2204.688,0.02014
2206.25,0.016098
2207.813,0.014043
2209.375,0.010618
2210.938,0.012057
2212.5,0.012057
2214.063,0.019729
2215.625,0.026716
2217.188,0.014934
2218.75,0.009453
2220.313,0.011166
2221.875,0.011509
2223.438,0.01007
2225,0.025209
2226.563,0.027812
2228.125,0.014043
2229.688,0.009179
2231.25,0.010618
2232.813,0.009179
2234.375,0.014043
2235.938,0.011783
2237.5,0.012057
2239.063,0.013495
2240.625,0.015482
2242.188,0.016098
2243.75,0.011509
2245.313,0.006028
2246.875,0.010892
2248.438,0.014043
2250,0.010344
2251.563,0.01466
2253.125,0.014043
2254.688,0.012331
2256.25,0.010618
2257.813,0.007741
2259.375,0.006885
2260.938,0.008905
2262.5,0.011783
2264.063,0.013769
2265.625,0.011509
2267.188,0.008049
2268.75,0.009453
2270.313,0.013221
2271.875,0.008631
2273.438,0.007193
2275,0.007193
2276.563,0.004316
2278.125,0.007741
2279.688,0.01007
2281.25,0.010618
2282.813,0.009179
2284.375,0.009179
2285.938,0.010618
2287.5,0.008631
2289.063,0.006611
2290.625,0.007467
2292.188,0.010344
2293.75,0.009453
2295.313,0.006028
2296.875,0.004316
2298.438,0.004025
2300,0.007193
2301.563,0.006611
2303.125,0.005172
2304.688,0.007741
2306.25,0.010618
2307.813,0.010618
2309.375,0.008631
2310.938,0.010344
2312.5,0.011783
2314.063,0.012947
2315.625,0.019181
2317.188,0.016372
2318.75,0.009728
2320.313,0.010892
2321.875,0.01466
2323.438,0.010892
2325,0.004025
2326.563,0.009453
2328.125,0.012057
2329.688,0.006885
2331.25,0.006028
2332.813,0.007741
2334.375,0.006028
2335.938,0.013769
2337.5,0.021784
2339.063,0.017263
2340.625,0.011166
2342.188,0.010892
2343.75,0.010618
2345.313,0.008631
2346.875,0.008631
2348.438,0.010892
2350,0.013769
2351.563,0.012605
2353.125,0.016098
2354.688,0.01692
2356.25,0.015824
2357.813,0.012331
2359.375,0.008905
2360.938,0.010344
2362.5,0.009179
2364.063,0.008049
2365.625,0.007741
2367.188,0.006885
2368.75,0.010892
2370.313,0.012057
2371.875,0.013221
2373.438,0.010618
2375,0.008631
2376.563,0.008631
2378.125,0.008905
2379.688,0.009179
2381.25,0.009453
2382.813,0.006885
2384.375,0.009179
2385.938,0.009179
2387.5,0.010344
2389.063,0.010618
2390.625,0.01007
2392.188,0.012331
2393.75,0.014043
2395.313,0.013221
2396.875,0.015824
2398.438,0.019181
2400,0.023017
2401.563,0.027812
2403.125,0.017537
2404.688,0.013495
2406.25,0.015824
2407.813,0.010344
2409.375,0.020688
2410.938,0.036444
2412.5,0.031923
2414.063,0.021236
2415.625,0.02151
2417.188,0.020414
2418.75,0.018907
2420.313,0.016646
2421.875,0.01466
2423.438,0.023017
2425,0.041376
2426.563,0.076724
2428.125,0.094261
2429.688,0.048227
2431.25,0.028086
2432.813,0.021236
2434.375,0.012605
2435.938,0.02014
2437.5,0.017811
2439.063,0.016646
2440.625,0.013495
2442.188,0.012947
2443.75,0.015482
2445.313,0.015208
2446.875,0.017263
2448.438,0.023017
2450,0.0348
2451.563,0.02932
2453.125,0.023017
2454.688,0.017263
2456.25,0.016098
2457.813,0.015824
2459.375,0.014043
2460.938,0.015208
2462.5,0.018359
2464.063,0.014043
2465.625,0.013221
2467.188,0.012331
2468.75,0.017263
2470.313,0.015824
2471.875,0.034526
2473.438,0.053981
2475,0.095357
2476.563,0.117278
2478.125,0.0696
2479.688,0.035074
2481.25,0.015482
2482.813,0.009179
2484.375,0.012605
2485.938,0.019729
2487.5,0.020414
2489.063,0.028771
2490.625,0.031923
2492.188,0.024661
2493.75,0.022058
2495.313,0.028086
2496.875,0.047678
2498.438,0.100837
2500,0.163313
2501.563,0.326625
2503.125,0.291551
2504.688,0.134267
2506.25,0.065489
2507.813,0.0348
2509.375,0.023565
2510.938,0.024387
2512.5,0.019181
2514.063,0.017263
2515.625,0.016646
2517.188,0.012605
2518.75,0.010344
2520.313,0.009179
2521.875,0.010344
2523.438,0.014043
2525,0.021236
2526.563,0.028771
2528.125,0.051241
2529.688,0.037266
2531.25,0.019181
2532.813,0.015482
2534.375,0.013221
2535.938,0.008905
2537.5,0.007741
2539.063,0.007467
2540.625,0.008049
2542.188,0.006885
2543.75,0.008905
2545.313,0.007741
2546.875,0.008631
2548.438,0.005754
2550,0.008905
2551.563,0.010618
2553.125,0.013769
2554.688,0.016098
2556.25,0.010618
2557.813,0.006611
2559.375,0.005172
2560.938,0.007741
2562.5,0.008905
2564.063,0.007193
2565.625,0.007467
2567.188,0.005754
2568.75,0.007741
2570.313,0.007467
2571.875,0.010344
2573.438,0.012947
2575,0.020962
2576.563,0.030142
2578.125,0.020414
2579.688,0.013221
2581.25,0.007741
2582.813,0.006028
2584.375,0.005172
2585.938,0.007741
2587.5,0.009179
2589.063,0.007193
2590.625,0.006611
2592.188,0.006885
2593.75,0.006028
2595.313,0.00459
2596.875,0.007741
2598.438,0.008323
2600,0.007193
2601.563,0.010618
2603.125,0.009728
2604.688,0.005446
2606.25,0.007467
2607.813,0.004864
2609.375,0.006885
2610.938,0.008323
2612.5,0.011509
2614.063,0.009728
2615.625,0.006028
2617.188,0.006611
2618.75,0.006302
2620.313,0.004864
2621.875,0.003151
2623.438,0.00459
2625,0.006302
2626.563,0.005754
2628.125,0.00459
2629.688,0.005446
2631.25,0.005446
2632.813,0.005754
2634.375,0.006611
2635.938,0.005754
2637.5,0.006302
2639.063,0.007467
2640.625,0.008905
2642.188,0.008905
2643.75,0.008049
2645.313,0.005446
2646.875,0.006885
2648.438,0.010344
2650,0.01466
2651.563,0.016372
2653.125,0.008631
2654.688,0.004025
2656.25,0.007467
2657.813,0.010344
2659.375,0.008323
2660.938,0.006885
2662.5,0.006302
2664.063,0.006028
2665.625,0.006028
2667.188,0.007193
2668.75,0.005446
2670.313,0.004864
2671.875,0.005446
2673.438,0.005172
2675,0.005172
2676.563,0.003733
2678.125,0.006028
2679.688,0.010892
2681.25,0.007193
2682.813,0.005446
2684.375,0.006302
2685.938,0.004316
2687.5,0.006302
2689.063,0.006302
2690.625,0.007741
2692.188,0.007467
2693.75,0.008049
2695.313,0.008049
2696.875,0.007193
2698.438,0.007193
2700,0.006028
2701.563,0.006028
2703.125,0.008631
2704.688,0.007467
2706.25,0.006028
2707.813,0.018633
2709.375,0.025209
2710.938,0.020414
2712.5,0.010344
2714.063,0.01007
2715.625,0.010618
2717.188,0.006302
2718.75,0.005754
2720.313,0.005446
2721.875,0.004025
2723.438,0.008905
2725,0.014043
2726.563,0.01007
2728.125,0.008323
2729.688,0.005754
2731.25,0.004316
2732.813,0.003442
2734.375,0.002877
2735.938,0.005446
2737.5,0.011166
2739.063,0.014934
2740.625,0.020962
2742.188,0.015208
2743.75,0.008323
2745.313,0.005754
2746.875,0.004864
2748.438,0.004316
2750,0.00459
2751.563,0.005172
2753.125,0.006028
2754.688,0.00459
2756.25,0.00459
2757.813,0.005446
2759.375,0.007467
2760.938,0.007193
2762.5,0.011783
2764.063,0.010344
2765.625,0.007741
2767.188,0.006611
2768.75,0.005754
2770.313,0.003151
2771.875,0.004025
2773.438,0.00459
2775,0.003733
2776.563,0.004864
2778.125,0.005754
2779.688,0.005446
2781.25,0.005446
2782.813,0.006028
2784.375,0.008049
2785.938,0.012605
2787.5,0.024387
2789.063,0.033567
2790.625,0.024387
2792.188,0.014043
2793.75,0.008049
2795.313,0.005172
2796.875,0.01007
2798.438,0.013769
2800,0.012331
2801.563,0.012057
2803.125,0.012057
2804.688,0.008631
2806.25,0.010344
2807.813,0.011166
2809.375,0.009728
2810.938,0.02014
2812.5,0.033841
2814.063,0.063297
2815.625,0.065489
2817.188,0.033293
2818.75,0.015208
2820.313,0.007467
2821.875,0.007741
2823.438,0.009453
2825,0.008631
2826.563,0.006885
2828.125,0.006028
2829.688,0.004316
2831.25,0.004316
2832.813,0.004025
2834.375,0.004025
2835.938,0.004316
2837.5,0.006611
2839.063,0.006885
2840.625,0.008905
2842.188,0.006611
2843.75,0.005446
2845.313,0.004316
2846.875,0.002586
2848.438,0.001721
2850,0.003151
2851.563,0.002877
2853.125,0.004316
2854.688,0.004864
2856.25,0.002877
2857.813,0.00459
2859.375,0.006611
2860.938,0.006611
2862.5,0.008049
2864.063,0.01007
2865.625,0.006885
2867.188,0.004316
2868.75,0.003733
2870.313,0.002586
2871.875,0.002295
2873.438,0.001721
2875,0.004316
2876.563,0.007467
2878.125,0.005172
2879.688,0.004316
2881.25,0.004864
2882.813,0.004316
2884.375,0.005754
2885.938,0.009453
2887.5,0.018907
2889.063,0.03069
2890.625,0.022332
2892.188,0.008631
2893.75,0.008631
2895.313,0.004864
2896.875,0.005172
2898.438,0.004316
2900,0.005754
2901.563,0.009179
2903.125,0.013769
2904.688,0.009179
2906.25,0.004316
2907.813,0.002295
2909.375,0.002586
2910.938,0.003442
2912.5,0.003442
2914.063,0.004025
2915.625,0.006885
2917.188,0.005446
2918.75,0.005172
2920.313,0.004025
2921.875,0.004316
2923.438,0.002877
2925,0.003151
2926.563,0.003442
2928.125,0.002877
2929.688,0.004025
2931.25,0.003733
2932.813,0.002877
2934.375,0.003442
2935.938,0.005446
2937.5,0.005172
2939.063,0.003442
2940.625,0.003151
2942.188,0.00459
2943.75,0.003151
2945.313,0.003151
2946.875,0.004025
2948.438,0.004864
2950,0.005172
2951.563,0.005172
2953.125,0.005446
2954.688,0.004316
2956.25,0.005172
2957.813,0.004025
2959.375,0.003151
2960.938,0.002877
2962.5,0.005754
2964.063,0.006611
2965.625,0.007193
2967.188,0.004025
2968.75,0.003442
2970.313,0.005446
2971.875,0.004864
2973.438,0.003733
2975,0.003442
2976.563,0.003733
2978.125,0.004316
2979.688,0.004025
2981.25,0.004864
2982.813,0.005172
2984.375,0.00459
2985.938,0.005754
2987.5,0.007193
2989.063,0.007741
2990.625,0.005446
2992.188,0.004864
2993.75,0.00459
2995.313,0.006611
2996.875,0.005172
2998.438,0.006302
3000,0.007467
3001.563,0.004864
3003.125,0.004316
3004.688,0.005172
3006.25,0.004025
3007.813,0.003442
3009.375,0.00459
3010.938,0.005172
3012.5,0.003151
3014.063,0.004864
3015.625,0.006302
3017.188,0.004316
3018.75,0.003151
3020.313,0.003733
3021.875,0.003151
3023.438,0.004316
3025,0.003442
3026.563,0.004864
3028.125,0.005754
3029.688,0.00459
3031.25,0.004025
3032.813,0.005446
3034.375,0.004025
3035.938,0.004864
3037.5,0.005754
3039.063,0.005172
3040.625,0.002586
3042.188,0.002877
3043.75,0.003733
3045.313,0.003733
3046.875,0.003733
3048.438,0.005446
3050,0.005446
3051.563,0.006611
3053.125,0.012331
3054.688,0.012057
3056.25,0.006028
3057.813,0.004864
3059.375,0.00459
3060.938,0.003151
3062.5,0.005172
3064.063,0.00459
3065.625,0.004864
3067.188,0.00459
3068.75,0.004316
3070.313,0.003733
3071.875,0.00459
3073.438,0.004316
3075,0.006611
3076.563,0.006028
3078.125,0.005172
3079.688,0.005172
3081.25,0.003151
3082.813,0.003733
3084.375,0.00459
3085.938,0.004025
3087.5,0.002877
3089.063,0.007193
3090.625,0.008631
3092.188,0.006885
3093.75,0.008049
3095.313,0.015824
3096.875,0.026168
3098.438,0.02014
3100,0.01466
3101.563,0.018359
3103.125,0.014386
3104.688,0.006885
3106.25,0.005172
3107.813,0.006611
3109.375,0.005172
3110.938,0.008631
3112.5,0.006885
3114.063,0.006302
3115.625,0.010344
3117.188,0.009453
3118.75,0.008631
3120.313,0.006302
3121.875,0.010344
3123.438,0.018359
3125,0.027538
3126.563,0.048227
3128.125,0.061379
3129.688,0.042472
3131.25,0.017537
3132.813,0.007741
3134.375,0.008905
3135.938,0.009453
3137.5,0.007193
3139.063,0.006302
3140.625,0.007467
3142.188,0.008323
3143.75,0.007467
3145.313,0.007467
3146.875,0.006302
3148.438,0.005754
3150,0.005172
3151.563,0.007741
3153.125,0.01007
3154.688,0.009728
3156.25,0.006028
3157.813,0.00459
3159.375,0.004316
3160.938,0.005754
3162.5,0.005754
3164.063,0.005172
3165.625,0.005172
3167.188,0.004864
3168.75,0.004316
3170.313,0.00459
3171.875,0.006028
3173.438,0.005754
3175,0.008323
3176.563,0.010344
3178.125,0.006885
3179.688,0.004025
3181.25,0.004864
3182.813,0.006028
3184.375,0.008323
3185.938,0.006885
3187.5,0.004864
3189.063,0.005172
3190.625,0.005172
3192.188,0.005446
3193.75,0.005754
3195.313,0.006028
3196.875,0.00459
3198.438,0.005172
3200,0.006028
3201.563,0.01007
3203.125,0.009453
3204.688,0.009179
3206.25,0.005754
3207.813,0.006028
3209.375,0.007467
3210.938,0.005172
3212.5,0.003442
3214.063,0.004025
3215.625,0.003151
3217.188,0.004864
3218.75,0.005446
3220.313,0.004864
3221.875,0.007467
3223.438,0.007193
3225,0.006302
3226.563,0.005172
3228.125,0.004864
3229.688,0.00459
3231.25,0.006028
3232.813,0.004316
3234.375,0.004025
3235.938,0.004025
3237.5,0.005172
3239.063,0.008631
3240.625,0.008049
3242.188,0.006028
3243.75,0.004316
3245.313,0.004025
3246.875,0.004025
3248.438,0.00459
3250,0.006028
3251.563,0.006028
3253.125,0.003733
3254.688,0.004025
3256.25,0.004316
3257.813,0.004025
3259.375,0.00459
3260.938,0.00459
3262.5,0.003151
3264.063,0.003733
3265.625,0.005172
3267.188,0.004025
3268.75,0.004025
3270.313,0.005172
3271.875,0.00459
3273.438,0.005446
3275,0.010344
3276.563,0.010892
3278.125,0.006302
3279.688,0.006302
3281.25,0.007741
3282.813,0.005754
3284.375,0.004025
3285.938,0.004025
3287.5,0.004316
3289.063,0.004025
3290.625,0.005754
3292.188,0.00459
3293.75,0.003442
3295.313,0.003442
3296.875,0.003442
3298.438,0.003733
3300,0.003733
3301.563,0.004316
3303.125,0.004025
3304.688,0.003733
3306.25,0.005754
3307.813,0.00459
3309.375,0.004025
3310.938,0.002877
3312.5,0.003442
3314.063,0.004316
3315.625,0.004025
3317.188,0.003151
3318.75,0.003151
3320.313,0.003733
3321.875,0.00459
3323.438,0.005172
3325,0.004025
3326.563,0.002877
3328.125,0.00459
3329.688,0.004025
3331.25,0.002877
3332.813,0.004316
3334.375,0.005754
3335.938,0.006302
3337.5,0.006302
3339.063,0.005446
3340.625,0.00459
3342.188,0.004316
3343.75,0.004025
3345.313,0.003733
3346.875,0.004025
3348.438,0.004025
3350,0.001721
3351.563,0.003442
3353.125,0.00459
3354.688,0.003733
3356.25,0.004316
3357.813,0.004025
3359.375,0.003151
3360.938,0.002295
3362.5,0.002877
3364.063,0.003442
3365.625,0.004316
3367.188,0.004316
3368.75,0.002012
3370.313,0.002012
3371.875,0.003442
3373.438,0.008631
3375,0.014043
3376.563,0.013769
3378.125,0.006885
3379.688,0.003442
3381.25,0.005172
3382.813,0.004864
3384.375,0.005172
3385.938,0.006028
3387.5,0.007193
3389.063,0.005446
3390.625,0.004316
3392.188,0.002877
3393.75,0.002586
3395.313,0.002295
3396.875,0.002295
3398.438,0.003442
3400,0.003733
3401.563,0.00459
3403.125,0.004864
3404.688,0.003442
3406.25,0.002295
3407.813,0.003733
3409.375,0.003733
3410.938,0.003442
3412.5,0.002877
3414.063,0.004025
3415.625,0.005172
3417.188,0.004025
3418.75,0.003442
3420.313,0.003442
3421.875,0.003442
3423.438,0.003442
3425,0.004316
3426.563,0.00459
3428.125,0.003442
3429.688,0.002586
3431.25,0.003151
3432.813,0.004025
3434.375,0.003733
3435.938,0.003442
3437.5,0.004316
3439.063,0.01007
3440.625,0.012947
3442.188,0.009453
3443.75,0.005446
3445.313,0.003733
3446.875,0.003151
3448.438,0.003733
3450,0.002877
3451.563,0.003442
3453.125,0.003733
3454.688,0.003151
3456.25,0.004025
3457.813,0.004316
3459.375,0.003442
3460.938,0.002877
3462.5,0.004316
3464.063,0.003733
3465.625,0.004025
3467.188,0.005172
3468.75,0.006028
3470.313,0.005446
3471.875,0.004864
3473.438,0.002586
3475,0.004316
3476.563,0.003151
3478.125,0.002295
3479.688,0.003151
3481.25,0.003442
3482.813,0.005172
3484.375,0.006885
3485.938,0.004316
3487.5,0.002012
3489.063,0.002877
3490.625,0.002877
3492.188,0.003733
3493.75,0.003442
3495.313,0.002295
3496.875,0.00459
3498.438,0.007467
3500,0.007193
3501.563,0.005172
3503.125,0.003733
3504.688,0.003442
3506.25,0.002586
3507.813,0.002586
3509.375,0.003442
3510.938,0.004025
3512.5,0.00459
3514.063,0.006611
3515.625,0.008323
3517.188,0.006611
3518.75,0.003733
3520.313,0.003151
3521.875,0.002586
3523.438,0.002877
3525,0.004316
3526.563,0.00459
3528.125,0.003442
3529.688,0.003151
3531.25,0.002877
3532.813,0.003442
3534.375,0.00459
3535.938,0.004025
3537.5,0.003151
3539.063,0.00459
3540.625,0.003151
3542.188,0.003442
3543.75,0.003442
3545.313,0.003442
3546.875,0.004025
3548.438,0.005446
3550,0.002877
3551.563,0.00459
3553.125,0.005172
3554.688,0.003442
3556.25,0.003442
3557.813,0.004864
3559.375,0.004025
3560.938,0.004025
3562.5,0.003442
3564.063,0.004316
3565.625,0.005446
3567.188,0.004864
3568.75,0.003733
3570.313,0.004864
3571.875,0.004864
3573.438,0.00459
3575,0.004025
3576.563,0.00459
3578.125,0.004864
3579.688,0.006611
3581.25,0.006028
3582.813,0.00459
3584.375,0.003442
3585.938,0.003151
3587.5,0.003733
3589.063,0.003151
3590.625,0.003733
3592.188,0.003151
3593.75,0.002295
3595.313,0.003442
3596.875,0.004316
3598.438,0.003733
3600,0.002586
3601.563,0.002877
3603.125,0.002586
3604.688,0.002877
3606.25,0.002012
3607.813,0.002295
3609.375,0.002586
3610.938,0.003151
3612.5,0.002877
3614.063,0.003442
3615.625,0.003442
3617.188,0.003442
3618.75,0.003733
3620.313,0.002877
3621.875,0.002877
3623.438,0.003151
3625,0.002877
3626.563,0.003151
3628.125,0.002586
3629.688,0.003151
3631.25,0.002295
3632.813,0.002295
3634.375,0.002586
3635.938,0.002877
3637.5,0.002877
3639.063,0.002877
3640.625,0.003442
3642.188,0.003151
3643.75,0.002586
3645.313,0.003442
3646.875,0.00459
3648.438,0.003442
3650,0.003442
3651.563,0.003151
3653.125,0.002012
3654.688,0.002586
3656.25,0.002877
3657.813,0.003442
3659.375,0.003151
3660.938,0.004025
3662.5,0.004864
3664.063,0.004025
3665.625,0.003442
3667.188,0.004025
3668.75,0.005446
3670.313,0.005172
3671.875,0.004316
3673.438,0.003733
3675,0.004025
3676.563,0.00459
3678.125,0.004025
3679.688,0.003151
3681.25,0.002877
3682.813,0.003151
3684.375,0.003442
3685.938,0.002295
3687.5,0.002877
3689.063,0.004025
3690.625,0.002586
3692.188,0.002295
3693.75,0.002586
3695.313,0.002295
3696.875,0.001721
3698.438,0.002586
3700,0.003733
3701.563,0.002586
3703.125,0.002295
3704.688,0.002586
3706.25,0.002877
3707.813,0.002586
3709.375,0.002295
3710.938,0.002012
3712.5,0.002877
3714.063,0.002877
3715.625,0.003151
3717.188,0.002295
3718.75,0.001721
3720.313,0.002586
3721.875,0.002012
3723.438,0.003151
3725,0.003733
3726.563,0.003733
3728.125,0.003151
3729.688,0.002295
3731.25,0.002586
3732.813,0.001721
3734.375,0.002877
3735.938,0.002586
3737.5,0.003151
3739.063,0.004864
3740.625,0.004316
3742.188,0.002295
3743.75,0.002586
3745.313,0.002877
3746.875,0.004025
3748.438,0.003442
3750,0.003151
3751.563,0.003442
3753.125,0.003733
3754.688,0.003442
3756.25,0.004316
3757.813,0.003442
3759.375,0.003151
3760.938,0.007741
3762.5,0.011509
3764.063,0.010892
3765.625,0.006302
3767.188,0.003442
3768.75,0.003442
3770.313,0.004025
3771.875,0.004025
3773.438,0.004025
3775,0.004864
3776.563,0.003733
3778.125,0.003442
3779.688,0.002877
3781.25,0.002012
3782.813,0.002295
3784.375,0.003442
3785.938,0.003733
3787.5,0.003733
3789.063,0.003151
3790.625,0.004025
3792.188,0.003151
3793.75,0.003151
3795.313,0.004864
3796.875,0.004025
3798.438,0.003151
3800,0.004025
3801.563,0.004864
3803.125,0.004025
3804.688,0.003733
3806.25,0.004316
3807.813,0.004316
3809.375,0.002586
3810.938,0.003151
3812.5,0.002877
3814.063,0.002586
3815.625,0.002586
3817.188,0.004864
3818.75,0.00459
3820.313,0.002877
3821.875,0.002586
3823.438,0.002877
3825,0.003733
3826.563,0.003442
3828.125,0.002586
3829.688,0.003151
3831.25,0.002586
3832.813,0.002877
3834.375,0.003442
3835.938,0.004864
3837.5,0.00459
3839.063,0.004316
3840.625,0.004864
3842.188,0.001721
3843.75,0.002295
3845.313,0.002877
3846.875,0.002586
3848.438,0.002586
3850,0.003733
3851.563,0.002877
3853.125,0.002877
3854.688,0.004864
3856.25,0.01007
3857.813,0.014386
3859.375,0.012057
3860.938,0.006611
3862.5,0.004864
3864.063,0.004025
3865.625,0.003151
3867.188,0.003151
3868.75,0.002877
3870.313,0.006028
3871.875,0.007467
3873.438,0.004025
3875,0.002877
3876.563,0.002295
3878.125,0.003442
3879.688,0.003442
3881.25,0.003151
3882.813,0.002295
3884.375,0.006028
3885.938,0.010344
3887.5,0.01007
3889.063,0.008049
3890.625,0.005446
3892.188,0.002877
3893.75,0.002586
3895.313,0.002877
3896.875,0.004316
3898.438,0.004864
3900,0.004864
3901.563,0.004316
3903.125,0.004316
3904.688,0.002877
3906.25,0.003151
3907.813,0.003151
3909.375,0.003151
3910.938,0.003733
3912.5,0.003442
3914.063,0.003151
3915.625,0.004025
3917.188,0.00459
3918.75,0.00459
3920.313,0.006302
3921.875,0.00459
3923.438,0.003151
3925,0.002586
3926.563,0.003151
3928.125,0.002877
3929.688,0.002877
3931.25,0.002877
3932.813,0.003151
3934.375,0.008049
3935.938,0.012331
3937.5,0.011509
3939.063,0.006885
3940.625,0.002586
3942.188,0.003442
3943.75,0.004025
3945.313,0.003442
3946.875,0.002295
3948.438,0.002295
3950,0.003733
3951.563,0.007467
3953.125,0.010618
3954.688,0.008905
3956.25,0.004864
3957.813,0.004025
3959.375,0.004316
3960.938,0.003442
3962.5,0.002295
3964.063,0.004025
3965.625,0.007467
3967.188,0.009179
3968.75,0.008323
3970.313,0.006028
3971.875,0.00459
3973.438,0.003151
3975,0.003733
3976.563,0.003442
3978.125,0.002586
3979.688,0.002586
3981.25,0.003151
3982.813,0.003151
3984.375,0.006611
3985.938,0.007467
3987.5,0.006611
3989.063,0.003733
3990.625,0.003151
3992.188,0.003151
3993.75,0.002586
3995.313,0.001721
3996.875,0.002295
3998.438,0.002586
4000,0.003151
4001.563,0.003151
4003.125,0.002586
4004.688,0.002586
4006.25,0.002295
4007.813,0.002295
4009.375,0.002295
4010.938,0.003442
4012.5,0.003442
4014.063,0.003442
4015.625,0.002877
4017.188,0.002586
4018.75,0.002295
4020.313,0.002012
4021.875,0.001721
4023.438,0.001721
4025,0.002012
4026.563,0.002012
4028.125,0.002877
4029.688,0.002877
4031.25,0.003442
4032.813,0.003442
4034.375,0.003442
4035.938,0.003733
4037.5,0.004316
4039.063,0.005172
4040.625,0.005754
4042.188,0.004316
4043.75,0.002295
4045.313,0.001439
4046.875,0.002295
4048.438,0.002012
4050,0.002877
4051.563,0.004025
4053.125,0.003151
4054.688,0.002586
4056.25,0.002295
4057.813,0.002295
4059.375,0.003442
4060.938,0.004025
4062.5,0.004316
4064.063,0.006885
4065.625,0.008323
4067.188,0.008049
4068.75,0.004864
4070.313,0.002877
4071.875,0.001721
4073.438,0.002012
4075,0.002586
4076.563,0.002586
4078.125,0.002012
4079.688,0.001721
4081.25,0.001721
4082.813,0.001721
4084.375,0.002295
4085.938,0.001439
4087.5,0.002586
4089.063,0.002877
4090.625,0.003151
4092.188,0.004316
4093.75,0.004316
4095.313,0.003151
4096.875,0.002877
4098.438,0.002586
4100,0.002586
4101.563,0.002295
4103.125,0.002012
4104.688,0.002012
4106.25,0.001721
4107.813,0.002586
4109.375,0.003442
4110.938,0.002877
4112.5,0.003151
4114.063,0.002877
4115.625,0.002586
4117.188,0.003442
4118.75,0.002877
4120.313,0.003151
4121.875,0.003442
4123.438,0.003151
4125,0.002586
4126.563,0.002877
4128.125,0.002877
4129.688,0.003151
4131.25,0.003151
4132.813,0.002586
4134.375,0.001721
4135.938,0.002295
4137.5,0.002877
4139.063,0.003733
4140.625,0.00459
4142.188,0.004025
4143.75,0.002877
4145.313,0.002586
4146.875,0.003442
4148.438,0.002877
4150,0.003151
4151.563,0.002295
4153.125,0.001721
4154.688,0.002586
4156.25,0.002877
4157.813,0.003151
4159.375,0.002877
4160.938,0.001721
4162.5,0.002877
4164.063,0.003151
4165.625,0.002012
4167.188,0.003442
4168.75,0.002877
4170.313,0.003151
4171.875,0.002877
4173.438,0.003442
4175,0.002877
4176.563,0.002586
4178.125,0.001721
4179.688,0.002586
4181.25,0.002586
4182.813,0.002295
4184.375,0.003151
4185.938,0.003442
4187.5,0.003442
4189.063,0.003733
4190.625,0.002586
4192.188,0.002012
4193.75,0.003442
4195.313,0.002586
4196.875,0.001721
4198.438,0.001721
4200,0.002586
4201.563,0.002295
4203.125,0.002295
4204.688,0.002877
4206.25,0.002586
4207.813,0.002586
4209.375,0.002586
4210.938,0.002586
4212.5,0.002295
4214.063,0.002877
4215.625,0.003151
4217.188,0.002877
4218.75,0.002012
4220.313,0.003442
4221.875,0.002877
4223.438,0.002586
4225,0.003151
4226.563,0.002586
4228.125,0.002586
4229.688,0.003442
4231.25,0.004025
4232.813,0.003442
4234.375,0.002877
4235.938,0.002877
4237.5,0.003442
4239.063,0.002877
4240.625,0.002877
4242.188,0.002877
4243.75,0.004316
4245.313,0.00459
4246.875,0.004864
4248.438,0.003151
4250,0.002295
4251.563,0.002295
4253.125,0.004025
4254.688,0.00459
4256.25,0.005446
4257.813,0.006028
4259.375,0.005172
4260.938,0.003442
4262.5,0.003151
4264.063,0.002586
4265.625,0.002586
4267.188,0.002877
4268.75,0.003442
4270.313,0.002877
4271.875,0.002295
4273.438,0.002877
4275,0.004316
4276.563,0.003442
4278.125,0.002586
4279.688,0.003733
4281.25,0.003442
4282.813,0.003151
4284.375,0.004316
4285.938,0.004864
4287.5,0.004025
4289.063,0.00459
4290.625,0.003733
4292.188,0.003442
4293.75,0.003442
4295.313,0.003151
4296.875,0.002877
4298.438,0.002877
4300,0.002586
4301.563,0.002012
4303.125,0.002877
4304.688,0.00459
4306.25,0.004316
4307.813,0.002877
4309.375,0.002586
4310.938,0.002295
4312.5,0.002877
4314.063,0.002586
4315.625,0.002295
4317.188,0.002586
4318.75,0.002877
4320.313,0.002586
4321.875,0.003151
4323.438,0.002012
4325,0.002877
4326.563,0.002877
4328.125,0.004025
4329.688,0.005446
4331.25,0.004316
4332.813,0.003442
4334.375,0.003151
4335.938,0.002877
4337.5,0.005172
4339.063,0.007193
4340.625,0.007467
4342.188,0.006028
4343.75,0.005172
4345.313,0.003151
4346.875,0.002586
4348.438,0.002586
4350,0.004316
4351.563,0.008323
4353.125,0.009728
4354.688,0.006028
4356.25,0.004025
4357.813,0.002295
4359.375,0.001721
4360.938,0.002295
4362.5,0.002877
4364.063,0.002295
4365.625,0.002877
4367.188,0.002586
4368.75,0.002877
4370.313,0.002877
4371.875,0.002012
4373.438,0.002012
4375,0.003151
4376.563,0.004025
4378.125,0.005172
4379.688,0.007193
4381.25,0.004864
4382.813,0.002877
4384.375,0.002586
4385.938,0.002295
4387.5,0.001721
4389.063,0.001147
4390.625,0.002295
4392.188,0.002586
4393.75,0.002012
4395.313,0.002586
4396.875,0.001439
4398.438,0.002586
4400,0.002586
4401.563,0.002295
4403.125,0.002295
4404.688,0.003442
4406.25,0.003442
4407.813,0.002295
4409.375,0.002586
4410.938,0.002012
4412.5,0.002586
4414.063,0.002877
4415.625,0.002012
4417.188,0.002586
4418.75,0.001439
4420.313,0.002012
4421.875,0.001439
4423.438,0.001439
4425,0.001721
4426.563,0.001721
4428.125,0.002295
4429.688,0.002295
4431.25,0.002586
4432.813,0.004025
4434.375,0.005754
4435.938,0.005446
4437.5,0.004025
4439.063,0.003733
4440.625,0.003151
4442.188,0.003733
4443.75,0.002877
4445.313,0.002877
4446.875,0.002012
4448.438,0.001721
4450,0.002586
4451.563,0.002295
4453.125,0.002012
4454.688,0.002877
4456.25,0.002586
4457.813,0.001721
4459.375,0.002012
4460.938,0.002295
4462.5,0.001439
4464.063,0.001147
4465.625,0.002012
4467.188,0.002295
4468.75,0.002012
4470.313,0.002012
4471.875,0.002586
4473.438,0.002877
4475,0.002295
4476.563,0.002877
4478.125,0.002012
4479.688,0.002295
4481.25,0.001721
4482.813,0.001439
4484.375,0.001439
4485.938,0.001721
4487.5,0.001439
4489.063,0.001439
4490.625,0.002295
4492.188,0.002012
4493.75,0.002012
4495.313,0.002295
4496.875,0.001721
4498.438,0.002586
4500,0.002012
4501.563,0.002295
4503.125,0.001721
4504.688,0.002012
4506.25,0.002012
4507.813,0.002012
4509.375,0.001721
4510.938,0.001439
4512.5,0.002295
4514.063,0.002012
4515.625,0.001147
4517.188,0.001721
4518.75,0.002295
4520.313,0.001439
4521.875,0.001147
4523.438,0.002012
4525,0.002586
4526.563,0.002877
4528.125,0.002295
4529.688,0.002012
4531.25,0.001439
4532.813,0.002877
4534.375,0.002586
4535.938,0.002295
4537.5,0.002586
4539.063,0.002877
4540.625,0.003151
4542.188,0.002586
4543.75,0.001439
4545.313,0.003151
4546.875,0.00459
4548.438,0.004316
4550,0.002877
4551.563,0.002877
4553.125,0.002586
4554.688,0.003442
4556.25,0.002586
4557.813,0.002586
4559.375,0.002012
4560.938,0.002586
4562.5,0.002586
4564.063,0.002012
4565.625,0.001721
4567.188,0.002012
4568.75,0.002012
4570.313,0.001439
4571.875,0.001721
4573.438,0.003151
4575,0.00459
4576.563,0.005754
4578.125,0.004316
4579.688,0.002586
4581.25,0.003151
4582.813,0.002586
4584.375,0.002295
4585.938,0.002295
4587.5,0.002877
4589.063,0.003151
4590.625,0.002586
4592.188,0.002586
4593.75,0.003442
4595.313,0.004864
4596.875,0.004025
4598.438,0.004025
4600,0.002877
4601.563,0.002586
4603.125,0.002586
4604.688,0.002586
4606.25,0.002586
4607.813,0.002586
4609.375,0.002877
4610.938,0.002295
4612.5,0.002295
4614.063,0.002295
4615.625,0.002012
4617.188,0.002586
4618.75,0.002012
4620.313,0.001721
4621.875,0.002586
4623.438,0.003151
4625,0.003733
4626.563,0.003733
4628.125,0.002877
4629.688,0.002295
4631.25,0.002586
4632.813,0.002295
4634.375,0.001439
4635.938,0.001721
4637.5,0.002877
4639.063,0.002877
4640.625,0.002586
4642.188,0.003733
4643.75,0.005754
4645.313,0.005754
4646.875,0.006302
4648.438,0.004316
4650,0.003442
4651.563,0.003151
4653.125,0.003733
4654.688,0.003442
4656.25,0.002012
4657.813,0.003151
4659.375,0.005446
4660.938,0.005446
4662.5,0.003442
4664.063,0.002295
4665.625,0.002012
4667.188,0.002586
4668.75,0.003151
4670.313,0.003151
4671.875,0.004316
4673.438,0.007193
4675,0.007741
4676.563,0.005172
4678.125,0.003442
4679.688,0.002295
4681.25,0.002586
4682.813,0.002586
4684.375,0.002877
4685.938,0.003442
4687.5,0.002586
4689.063,0.002012
4690.625,0.001439
4692.188,0.003151
4693.75,0.003442
4695.313,0.001721
4696.875,0.001721
4698.438,0.002012
4700,0.002586
4701.563,0.002012
4703.125,0.001439
4704.688,0.001439
4706.25,0.000861
4707.813,0.002012
4709.375,0.002295
4710.938,0.001721
4712.5,0.001721
4714.063,0.002295
4715.625,0.002586
4717.188,0.002295
4718.75,0.001721
4720.313,0.002295
4721.875,0.002295
4723.438,0.002586
4725,0.003151
4726.563,0.002877
4728.125,0.003151
4729.688,0.002295
4731.25,0.002295
4732.813,0.002295
4734.375,0.002586
4735.938,0.002295
4737.5,0.002012
4739.063,0.002012
4740.625,0.003151
4742.188,0.004025
4743.75,0.003151
4745.313,0.001439
4746.875,0.002012
4748.438,0.002586
4750,0.002295
4751.563,0.002295
4753.125,0.002295
4754.688,0.001721
4756.25,0.002012
4757.813,0.002012
4759.375,0.002012
4760.938,0.002877
4762.5,0.003151
4764.063,0.003733
4765.625,0.003733
4767.188,0.003151
4768.75,0.001721
4770.313,0.002012
4771.875,0.002012
4773.438,0.002012
4775,0.002012
4776.563,0.001439
4778.125,0.002012
4779.688,0.002012
4781.25,0.001721
4782.813,0.002295
4784.375,0.002012
4785.938,0.002012
4787.5,0.001147
4789.063,0.001147
4790.625,0.000861
4792.188,0.001721
4793.75,0.001721
4795.313,0.001439
4796.875,0.002295
4798.438,0.002012
4800,0.002586
4801.563,0.001721
4803.125,0.000861
4804.688,0.001439
4806.25,0.000861
4807.813,0.001439
4809.375,0.001439
4810.938,0.001721
4812.5,0.001721
4814.063,0.002012
4815.625,0.001439
4817.188,0.002012
4818.75,0.002295
4820.313,0.002877
4821.875,0.002586
4823.438,0.002877
4825,0.002586
4826.563,0.002012
4828.125,0.001721
4829.688,0.002012
4831.25,0.001721
4832.813,0.000861
4834.375,0.001147
4835.938,0.001721
4837.5,0.001721
4839.063,0.002012
4840.625,0.001721
4842.188,0.001721
4843.75,0.001147
4845.313,0.001439
4846.875,0.001721
4848.438,0.002012
4850,0.001439
4851.563,0.001721
4853.125,0.001721
4854.688,0.001439
4856.25,0.001439
4857.813,0.001439
4859.375,0.001147
4860.938,0.001147
4862.5,0.001439
4864.063,0.001147
4865.625,0.001721
4867.188,0.002012
4868.75,0.001439
4870.313,0.001721
4871.875,0.001721
4873.438,0.001439
4875,0.001439
4876.563,0.001721
4878.125,0.001721
4879.688,0.001439
4881.25,0.001439
4882.813,0.001439
4884.375,0.001439
4885.938,0.001439
4887.5,0.001721
4889.063,0.001721
4890.625,0.001439
4892.188,0.001721
4893.75,0.001721
4895.313,0.001147
4896.875,0.001439
4898.438,0.001721
4900,0.002012
4901.563,0.001147
4903.125,0.001147
4904.688,0.001147
4906.25,0.001439
4907.813,0.001721
4909.375,0.001721
4910.938,0.001439
4912.5,0.001439
4914.063,0.001721
4915.625,0.001721
4917.188,0.002012
4918.75,0.002012
4920.313,0.001439
4921.875,0.001439
4923.438,0.001147
4925,0.001147
4926.563,0.001721
4928.125,0.001147
4929.688,0.001147
4931.25,0.001721
4932.813,0.002295
4934.375,0.001721
4935.938,0.001721
4937.5,0.001439
4939.063,0.001721
4940.625,0.001147
4942.188,0.000861
4943.75,0.001439
4945.313,0.001721
4946.875,0.001721
4948.438,0.001147
4950,0.001439
4951.563,0.001147
4953.125,0.001439
4954.688,0.000861
4956.25,0.000861
4957.813,0.001439
4959.375,0.000861
4960.938,0.001439
4962.5,0.001147
4964.063,0.001147
4965.625,0.001439
4967.188,0.001439
4968.75,0.001147
4970.313,0.001721
4971.875,0.001439
4973.438,0.001439
4975,0.001439
4976.563,0.001721
4978.125,0.002012
4979.688,0.001439
4981.25,0.001147
4982.813,0.001439
4984.375,0.001439
4985.938,0.001147
4987.5,0.002012
4989.063,0.001721
4990.625,0.001721
4992.188,0.001721
4993.75,0.001439
4995.313,0.001439
4996.875,0.000861
4998.438,0.001147